$DSC2
$Conventional
$Adiabatic Mode
$Scanrate Corrected-Programmed
$Baseline Subtraction Method: 0 File: NONE
$DP Corrected
$RTD Corrected
$MidGain FB,  0.75 
$ADCGainCode:  0 
$ 10 
$NOT
$ 10 
$ 0            20            25           False
$ 0 
$ 15           80            60            5             0             2             2             0 
$ 15           80            60            5             0             2             2             0 
$ 15           80            60            5             0             2             2             0 
$ 15           80            60            5             0             2             2             0 
$ 15           80            60            5             0             2             2             0 
$ 15           80            60            5             0             2             2             0 
$ 15           80            60            5             0             2             2             0 
$ 15           80            60            5             0             2             2             0 
$ 15           80            60            5             0             2             2             0 
$ 15           80            60            5             0             2             2             0 
# 0 
# 0.5197
# 0
# 11.63 
# 0.75 
# 10.743 
? 
% VPDSC02.06.462
% 0.51971 
% 11.63 
%-0.995356 , 100.17434 
% 3.676 
% 250 ,       -22.5 
% 1000.3 , 1000.3 
% 0.88219 ,-0.02026 
%-0.08266 , 0.02515 
% 1 , 0.055 
% 0.0522 
% 1 , 130 
% 0.080433 , 0.056504 
% 0 , 8 
% 0 , 18 
% 0.072589046661 ,-0.003235099108 , 8.240903228419E-06 , 2.357972384211E-07 ,-7.440723641986E-10 
% VPViewer2000 Ver: 1.4.14
@6
17.38763,-3.113294,2.00
17.42091,-3.112795,4.00
17.45691,-3.112050,6.00
17.49072,-3.111486,8.00
17.52343,-3.111528,10.00
17.55510,-3.111902,12.00
17.58638,-3.111631,14.00
17.62152,-3.111142,16.00
17.65431,-3.111229,18.00
17.68568,-3.110994,20.00
17.71832,-3.110606,22.00
17.75143,-3.110041,24.00
17.78384,-3.109665,26.00
17.81756,-3.109688,28.00
17.85315,-3.109049,30.00
17.88628,-3.108606,32.00
17.91880,-3.108374,34.00
17.95329,-3.108023,36.00
17.98561,-3.108284,38.00
18.01967,-3.108586,40.00
18.05457,-3.108350,42.00
18.08775,-3.108336,44.00
18.12268,-3.109042,46.00
18.15681,-3.108840,48.00
18.19176,-3.108625,50.00
18.22581,-3.108905,52.00
18.25640,-3.109344,54.00
18.29139,-3.109912,56.00
18.32165,-3.109606,58.00
18.35275,-3.109052,60.00
18.38660,-3.108492,62.00
18.42328,-3.108453,64.00
18.45645,-3.108563,66.00
18.48926,-3.108935,68.00
18.52155,-3.109029,70.00
18.55605,-3.108867,72.00
18.59017,-3.109332,74.00
18.61973,-3.109484,76.00
18.65423,-3.109237,78.00
18.68871,-3.108879,80.00
18.72231,-3.108643,82.00
18.75620,-3.108581,84.00
18.78653,-3.108064,86.00
18.81920,-3.107000,88.00
18.85101,-3.106334,90.00
18.88639,-3.105874,92.00
18.91948,-3.105666,94.00
18.95189,-3.105079,96.00
18.98636,-3.104663,98.00
19.01984,-3.104296,100.00
19.05139,-3.104224,102.00
19.08387,-3.104351,104.00
19.11792,-3.103973,106.00
19.15226,-3.103859,108.00
19.18511,-3.103797,110.00
19.21809,-3.104334,112.00
19.25358,-3.104723,114.00
19.28759,-3.104792,116.00
19.32229,-3.104912,118.00
19.35602,-3.104713,120.00
19.38845,-3.104802,122.00
19.42034,-3.104345,124.00
19.45212,-3.103735,126.00
19.48791,-3.103220,128.00
19.51962,-3.103133,130.00
19.55037,-3.102825,132.00
19.58356,-3.102926,134.00
19.61576,-3.102970,136.00
19.64950,-3.103553,138.00
19.68164,-3.103398,140.00
19.71446,-3.104056,142.00
19.74602,-3.104313,144.00
19.77868,-3.104141,146.00
19.81115,-3.103889,148.00
19.84467,-3.103873,150.00
19.87713,-3.103655,152.00
19.90990,-3.103089,154.00
19.94318,-3.103254,156.00
19.97747,-3.103431,158.00
20.01149,-3.103639,160.00
20.04731,-3.103665,162.00
20.08127,-3.104014,164.00
20.11172,-3.103946,166.00
20.14504,-3.104350,168.00
20.17895,-3.104155,170.00
20.21249,-3.103785,172.00
20.24395,-3.103995,174.00
20.27780,-3.102619,176.00
20.31058,-3.102322,178.00
20.34552,-3.101328,180.00
20.37962,-3.101121,182.00
20.41032,-3.100739,184.00
20.44243,-3.100636,186.00
20.47530,-3.102048,188.00
20.51094,-3.101151,190.00
20.54296,-3.102247,192.00
20.57378,-3.102411,194.00
20.60597,-3.102923,196.00
20.63967,-3.102867,198.00
20.67553,-3.102766,200.00
20.70921,-3.103218,202.00
20.74052,-3.102863,204.00
20.77283,-3.102963,206.00
20.80378,-3.102817,208.00
20.83677,-3.102691,210.00
20.87055,-3.102241,212.00
20.90388,-3.101960,214.00
20.93751,-3.101787,216.00
20.96795,-3.101738,218.00
21.00269,-3.100701,220.00
21.03862,-3.099962,222.00
21.06923,-3.099894,224.00
21.10262,-3.099969,226.00
21.13451,-3.099519,228.00
21.16743,-3.099083,230.00
21.19879,-3.098494,232.00
21.23460,-3.098492,234.00
21.26665,-3.098456,236.00
21.29841,-3.098203,238.00
21.33247,-3.098398,240.00
21.36452,-3.098783,242.00
21.39669,-3.098554,244.00
21.42945,-3.099371,246.00
21.46551,-3.099175,248.00
21.49820,-3.098764,250.00
21.53011,-3.098768,252.00
21.56487,-3.098871,254.00
21.59631,-3.099033,256.00
21.62813,-3.098764,258.00
21.65953,-3.098788,260.00
21.69303,-3.099345,262.00
21.72494,-3.099135,264.00
21.75628,-3.099223,266.00
21.79146,-3.099483,268.00
21.82225,-3.099332,270.00
21.85536,-3.099462,272.00
21.89040,-3.099747,274.00
21.92428,-3.100020,276.00
21.95551,-3.099386,278.00
21.98920,-3.099106,280.00
22.02130,-3.099037,282.00
22.04997,-3.098535,284.00
22.08338,-3.098180,286.00
22.11852,-3.098040,288.00
22.15301,-3.097751,290.00
22.18573,-3.097260,292.00
22.21422,-3.096633,294.00
22.24812,-3.096320,296.00
22.28138,-3.096721,298.00
22.31474,-3.096803,300.00
22.34944,-3.096811,302.00
22.38147,-3.097121,304.00
22.41154,-3.097655,306.00
22.44647,-3.097574,308.00
22.47757,-3.097984,310.00
22.50813,-3.098496,312.00
22.54373,-3.098840,314.00
22.57386,-3.098674,316.00
22.60749,-3.098701,318.00
22.64178,-3.098626,320.00
22.67614,-3.098997,322.00
22.70802,-3.098724,324.00
22.73653,-3.098535,326.00
22.76879,-3.098830,328.00
22.80084,-3.098836,330.00
22.83749,-3.098401,332.00
22.86964,-3.098222,334.00
22.90205,-3.098121,336.00
22.93639,-3.097466,338.00
22.96854,-3.097489,340.00
23.00238,-3.096698,342.00
23.03589,-3.096788,344.00
23.06838,-3.096765,346.00
23.10069,-3.096386,348.00
23.13272,-3.096122,350.00
23.16515,-3.095708,352.00
23.19690,-3.095245,354.00
23.23037,-3.095181,356.00
23.26244,-3.095846,358.00
23.29828,-3.095839,360.00
23.33282,-3.095682,362.00
23.36326,-3.095372,364.00
23.39860,-3.094649,366.00
23.43344,-3.094993,368.00
23.46500,-3.094982,370.00
23.49840,-3.094923,372.00
23.53335,-3.094839,374.00
23.56587,-3.094369,376.00
23.60050,-3.094752,378.00
23.63324,-3.094734,380.00
23.66567,-3.095038,382.00
23.69716,-3.094674,384.00
23.72900,-3.094939,386.00
23.76141,-3.095234,388.00
23.79602,-3.095924,390.00
23.83178,-3.096239,392.00
23.86411,-3.096305,394.00
23.89404,-3.096334,396.00
23.92682,-3.096864,398.00
23.95890,-3.096526,400.00
23.99324,-3.097337,402.00
24.02640,-3.097815,404.00
24.06018,-3.098129,406.00
24.09038,-3.098805,408.00
24.12500,-3.099399,410.00
24.15850,-3.099314,412.00
24.19032,-3.098950,414.00
24.22306,-3.098709,416.00
24.25765,-3.098789,418.00
24.29285,-3.098815,420.00
24.32555,-3.098130,422.00
24.35812,-3.098517,424.00
24.39026,-3.098549,426.00
24.42339,-3.098576,428.00
24.45658,-3.098832,430.00
24.48593,-3.099266,432.00
24.52017,-3.098989,434.00
24.55319,-3.098834,436.00
24.58590,-3.098766,438.00
24.61983,-3.099034,440.00
24.65155,-3.099123,442.00
24.68680,-3.098756,444.00
24.71926,-3.098635,446.00
24.75592,-3.098508,448.00
24.78969,-3.098548,450.00
24.81894,-3.098333,452.00
24.85185,-3.097882,454.00
24.88530,-3.098118,456.00
24.91993,-3.097578,458.00
24.95446,-3.097440,460.00
24.99070,-3.097755,462.00
25.02128,-3.098196,464.00
25.05167,-3.098776,466.00
25.08325,-3.099073,468.00
25.11737,-3.099507,470.00
25.14938,-3.099958,472.00
25.18266,-3.100311,474.00
25.21695,-3.100265,476.00
25.24893,-3.100691,478.00
25.28158,-3.100843,480.00
25.31278,-3.100503,482.00
25.34802,-3.100252,484.00
25.37991,-3.100016,486.00
25.41430,-3.100257,488.00
25.44669,-3.100579,490.00
25.48068,-3.100746,492.00
25.51126,-3.101252,494.00
25.54629,-3.101215,496.00
25.57901,-3.101701,498.00
25.61074,-3.102113,500.00
25.64419,-3.102915,502.00
25.67709,-3.103423,504.00
25.71092,-3.104425,506.00
25.74326,-3.104866,508.00
25.77810,-3.105489,510.00
25.81149,-3.106024,512.00
25.84495,-3.107124,514.00
25.88166,-3.107765,516.00
25.91227,-3.108492,518.00
25.94321,-3.109246,520.00
25.97792,-3.109943,522.00
26.01178,-3.110401,524.00
26.04546,-3.111467,526.00
26.07781,-3.112305,528.00
26.10652,-3.112707,530.00
26.13964,-3.112962,532.00
26.17458,-3.113862,534.00
26.21005,-3.114312,536.00
26.24474,-3.115136,538.00
26.27747,-3.116175,540.00
26.31289,-3.116307,542.00
26.34867,-3.117165,544.00
26.37861,-3.117777,546.00
26.41026,-3.118511,548.00
26.44228,-3.119433,550.00
26.47542,-3.120648,552.00
26.50921,-3.121687,554.00
26.54216,-3.123025,556.00
26.57301,-3.125026,558.00
26.60715,-3.126807,560.00
26.64010,-3.128077,562.00
26.67032,-3.130010,564.00
26.70406,-3.131746,566.00
26.73995,-3.133435,568.00
26.77308,-3.135478,570.00
26.80792,-3.137147,572.00
26.84080,-3.138807,574.00
26.87365,-3.141736,576.00
26.90855,-3.144634,578.00
26.94109,-3.147589,580.00
26.97386,-3.150936,582.00
27.00654,-3.154441,584.00
27.04004,-3.158081,586.00
27.07626,-3.162297,588.00
27.10919,-3.167118,590.00
27.14197,-3.172111,592.00
27.17779,-3.178568,594.00
27.21078,-3.184868,596.00
27.24285,-3.192343,598.00
27.27777,-3.201063,600.00
27.30929,-3.210195,602.00
27.34040,-3.220340,604.00
27.37646,-3.232475,606.00
27.40879,-3.245781,608.00
27.43951,-3.260775,610.00
27.47404,-3.278250,612.00
27.50956,-3.298872,614.00
27.54039,-3.322378,616.00
27.57166,-3.350551,618.00
27.60569,-3.384038,620.00
27.63758,-3.425147,622.00
27.67194,-3.475367,624.00
27.70608,-3.538241,626.00
27.73879,-3.617330,628.00
27.77066,-3.718406,630.00
27.80354,-3.851894,632.00
27.83655,-4.027433,634.00
27.86912,-4.258710,636.00
27.90216,-4.548323,638.00
27.93392,-4.875761,640.00
27.96626,-5.238403,642.00
27.99946,-5.657471,644.00
28.03365,-6.120723,646.00
28.06709,-6.639728,648.00
28.10206,-7.199359,650.00
28.13880,-7.689851,652.00
28.16989,-7.912190,654.00
28.20275,-7.744751,656.00
28.23723,-7.250606,658.00
28.27095,-6.634617,660.00
28.30442,-6.047869,662.00
28.33786,-5.536110,664.00
28.37016,-5.104117,666.00
28.40110,-4.744325,668.00
28.43353,-4.447308,670.00
28.46482,-4.202471,672.00
28.49950,-4.000379,674.00
28.53078,-3.834573,676.00
28.56220,-3.698215,678.00
28.59607,-3.586977,680.00
28.62907,-3.495475,682.00
28.66146,-3.419801,684.00
28.69449,-3.357786,686.00
28.72789,-3.307437,688.00
28.76132,-3.266479,690.00
28.79502,-3.232404,692.00
28.82749,-3.204535,694.00
28.85907,-3.181473,696.00
28.89204,-3.162933,698.00
28.92575,-3.147773,700.00
28.95868,-3.135203,702.00
28.99000,-3.125221,704.00
29.02499,-3.116257,706.00
29.05852,-3.109119,708.00
29.09105,-3.103701,710.00
29.12298,-3.098851,712.00
29.15685,-3.095497,714.00
29.18805,-3.093316,716.00
29.22201,-3.092511,718.00
29.25405,-3.092558,720.00
29.28784,-3.092506,722.00
29.31908,-3.093822,724.00
29.35441,-3.095159,726.00
29.38850,-3.095254,728.00
29.42094,-3.095401,730.00
29.45306,-3.094627,732.00
29.48558,-3.092728,734.00
29.51704,-3.090625,736.00
29.55374,-3.088657,738.00
29.58624,-3.086642,740.00
29.61841,-3.085137,742.00
29.65293,-3.083838,744.00
29.68720,-3.082911,746.00
29.71989,-3.081947,748.00
29.75392,-3.081101,750.00
29.78792,-3.080268,752.00
29.81873,-3.079863,754.00
29.85338,-3.079784,756.00
29.88681,-3.079532,758.00
29.92015,-3.079025,760.00
29.95352,-3.078972,762.00
29.97990,-3.078613,764.00
30.01218,-3.078125,766.00
30.04631,-3.077933,768.00
30.07898,-3.077435,770.00
30.10949,-3.077276,772.00
30.14621,-3.076948,774.00
30.17882,-3.076412,776.00
30.21211,-3.075841,778.00
30.24878,-3.075504,780.00
30.28213,-3.075203,782.00
30.31389,-3.075115,784.00
30.34792,-3.075329,786.00
30.38103,-3.075780,788.00
30.41567,-3.075962,790.00
30.44866,-3.075725,792.00
30.48007,-3.076285,794.00
30.51491,-3.076642,796.00
30.55073,-3.076855,798.00
30.58688,-3.076500,800.00
30.61874,-3.076577,802.00
30.65052,-3.076828,804.00
30.68324,-3.077009,806.00
30.71555,-3.076981,808.00
30.74765,-3.076897,810.00
30.78099,-3.076997,812.00
30.81461,-3.076974,814.00
30.84898,-3.076829,816.00
30.88089,-3.076913,818.00
30.91339,-3.077527,820.00
30.94528,-3.077602,822.00
30.97821,-3.076923,824.00
31.01335,-3.076858,826.00
31.04666,-3.076528,828.00
31.08205,-3.076277,830.00
31.11303,-3.076247,832.00
31.14401,-3.076496,834.00
31.17817,-3.075900,836.00
31.21004,-3.075335,838.00
31.24222,-3.075077,840.00
31.27711,-3.075389,842.00
31.30984,-3.075766,844.00
31.34581,-3.075317,846.00
31.37948,-3.075303,848.00
31.41169,-3.075082,850.00
31.44212,-3.074741,852.00
31.47687,-3.074714,854.00
31.51139,-3.074685,856.00
31.54254,-3.074889,858.00
31.57795,-3.074841,860.00
31.60958,-3.074865,862.00
31.64296,-3.075111,864.00
31.67390,-3.075246,866.00
31.70905,-3.075163,868.00
31.73952,-3.075255,870.00
31.77158,-3.075097,872.00
31.80477,-3.074736,874.00
31.83889,-3.074620,876.00
31.87282,-3.074573,878.00
31.90721,-3.074650,880.00
31.94106,-3.074096,882.00
31.97352,-3.073905,884.00
32.00548,-3.073935,886.00
32.03857,-3.074321,888.00
32.07128,-3.074047,890.00
32.10495,-3.073888,892.00
32.13901,-3.073507,894.00
32.17133,-3.073568,896.00
32.20449,-3.073802,898.00
32.23674,-3.073456,900.00
32.27129,-3.073741,902.00
32.30558,-3.073692,904.00
32.33791,-3.073458,906.00
32.37159,-3.073258,908.00
32.40568,-3.072973,910.00
32.43962,-3.072257,912.00
32.47148,-3.071991,914.00
32.50357,-3.071159,916.00
32.53620,-3.070095,918.00
32.56909,-3.069856,920.00
32.60062,-3.070154,922.00
32.63340,-3.070139,924.00
32.66629,-3.070617,926.00
32.69949,-3.070707,928.00
32.73100,-3.071191,930.00
32.76415,-3.071120,932.00
32.79635,-3.071266,934.00
32.82944,-3.071119,936.00
32.86210,-3.071111,938.00
32.89583,-3.071153,940.00
32.92876,-3.070910,942.00
32.96524,-3.071013,944.00
32.99657,-3.071077,946.00
33.03051,-3.071047,948.00
33.06618,-3.070880,950.00
33.09766,-3.071267,952.00
33.13124,-3.070960,954.00
33.16130,-3.070594,956.00
33.19607,-3.070248,958.00
33.23034,-3.070538,960.00
33.26254,-3.071112,962.00
33.29446,-3.070774,964.00
33.33094,-3.071166,966.00
33.36046,-3.071310,968.00
33.39430,-3.071238,970.00
33.42654,-3.071633,972.00
33.46042,-3.071710,974.00
33.49408,-3.071569,976.00
33.52704,-3.071793,978.00
33.55961,-3.071719,980.00
33.59391,-3.071329,982.00
33.62987,-3.070641,984.00
33.66216,-3.070739,986.00
33.69569,-3.070598,988.00
33.72996,-3.070924,990.00
33.76164,-3.070641,992.00
33.79619,-3.070305,994.00
33.82812,-3.070112,996.00
33.86062,-3.069661,998.00
33.89131,-3.069592,1000.00
33.92240,-3.069626,1002.00
33.95566,-3.069237,1004.00
33.98933,-3.069138,1006.00
34.02321,-3.069009,1008.00
34.05677,-3.069079,1010.00
34.08997,-3.069200,1012.00
34.12434,-3.068943,1014.00
34.15814,-3.069092,1016.00
34.19115,-3.069160,1018.00
34.22674,-3.069438,1020.00
34.25773,-3.069525,1022.00
34.29147,-3.069370,1024.00
34.32374,-3.069177,1026.00
34.35894,-3.069916,1028.00
34.39194,-3.070467,1030.00
34.42613,-3.070955,1032.00
34.46129,-3.071403,1034.00
34.49258,-3.071537,1036.00
34.52590,-3.071841,1038.00
34.55991,-3.072545,1040.00
34.59121,-3.072705,1042.00
34.62533,-3.072549,1044.00
34.65851,-3.072720,1046.00
34.69234,-3.072632,1048.00
34.72518,-3.072553,1050.00
34.75906,-3.072804,1052.00
34.79136,-3.073044,1054.00
34.82480,-3.072679,1056.00
34.85842,-3.072670,1058.00
34.89145,-3.072284,1060.00
34.92672,-3.072287,1062.00
34.95881,-3.072649,1064.00
34.99036,-3.073185,1066.00
35.02487,-3.072610,1068.00
35.05678,-3.072781,1070.00
35.09226,-3.072753,1072.00
35.12506,-3.072675,1074.00
35.15864,-3.073121,1076.00
35.18976,-3.072959,1078.00
35.22373,-3.072801,1080.00
35.25481,-3.072394,1082.00
35.28775,-3.072050,1084.00
35.32180,-3.071988,1086.00
35.35487,-3.071613,1088.00
35.38662,-3.071207,1090.00
35.42079,-3.071337,1092.00
35.45712,-3.071454,1094.00
35.49138,-3.071461,1096.00
35.52303,-3.071621,1098.00
35.55710,-3.071490,1100.00
35.59065,-3.071837,1102.00
35.62315,-3.072516,1104.00
35.65639,-3.072651,1106.00
35.69101,-3.072713,1108.00
35.72372,-3.072298,1110.00
35.75841,-3.072210,1112.00
35.79057,-3.071566,1114.00
35.82291,-3.071020,1116.00
35.85693,-3.071094,1118.00
35.89221,-3.070932,1120.00
35.92258,-3.070762,1122.00
35.95807,-3.070735,1124.00
35.99286,-3.070279,1126.00
36.02471,-3.070338,1128.00
36.05568,-3.070976,1130.00
36.08860,-3.070716,1132.00
36.12165,-3.070460,1134.00
36.15680,-3.070235,1136.00
36.19048,-3.070138,1138.00
36.22409,-3.070116,1140.00
36.25680,-3.070455,1142.00
36.28928,-3.070713,1144.00
36.32226,-3.070712,1146.00
36.35490,-3.071361,1148.00
36.38856,-3.071856,1150.00
36.42366,-3.072229,1152.00
36.45613,-3.072887,1154.00
36.48895,-3.073040,1156.00
36.52137,-3.072979,1158.00
36.55577,-3.073085,1160.00
36.58615,-3.073210,1162.00
36.61862,-3.072818,1164.00
36.65198,-3.073169,1166.00
36.68378,-3.073244,1168.00
36.71700,-3.073099,1170.00
36.75184,-3.073271,1172.00
36.78534,-3.073357,1174.00
36.81555,-3.073482,1176.00
36.84957,-3.072711,1178.00
36.88237,-3.072293,1180.00
36.91603,-3.072151,1182.00
36.95009,-3.071323,1184.00
36.98488,-3.071225,1186.00
37.01786,-3.070871,1188.00
37.05010,-3.070574,1190.00
37.08224,-3.070486,1192.00
37.11571,-3.070433,1194.00
37.14824,-3.070262,1196.00
37.18131,-3.069913,1198.00
37.21365,-3.070403,1200.00
37.24725,-3.070504,1202.00
37.28115,-3.069940,1204.00
37.31401,-3.069796,1206.00
37.34824,-3.069907,1208.00
37.38298,-3.069942,1210.00
37.41413,-3.069762,1212.00
37.44801,-3.070049,1214.00
37.48404,-3.070464,1216.00
37.51703,-3.070674,1218.00
37.54907,-3.070487,1220.00
37.58239,-3.070336,1222.00
37.61364,-3.070000,1224.00
37.64743,-3.070857,1226.00
37.68101,-3.070893,1228.00
37.71370,-3.070850,1230.00
37.74688,-3.070532,1232.00
37.77868,-3.070610,1234.00
37.80863,-3.070905,1236.00
37.84326,-3.071107,1238.00
37.87698,-3.071234,1240.00
37.91081,-3.070539,1242.00
37.94481,-3.070411,1244.00
37.97755,-3.069900,1246.00
38.01138,-3.070881,1248.00
38.04307,-3.071141,1250.00
38.07685,-3.071567,1252.00
38.11104,-3.072196,1254.00
38.14499,-3.071975,1256.00
38.17939,-3.071936,1258.00
38.21321,-3.072184,1260.00
38.24444,-3.072328,1262.00
38.27716,-3.072187,1264.00
38.31251,-3.071654,1266.00
38.34325,-3.072468,1268.00
38.37520,-3.072818,1270.00
38.41052,-3.072898,1272.00
38.44300,-3.073100,1274.00
38.47503,-3.072947,1276.00
38.50816,-3.072424,1278.00
38.54170,-3.072516,1280.00
38.57350,-3.072480,1282.00
38.60755,-3.072687,1284.00
38.63821,-3.072559,1286.00
38.67423,-3.072102,1288.00
38.70713,-3.072179,1290.00
38.74243,-3.071673,1292.00
38.77419,-3.071407,1294.00
38.80615,-3.072004,1296.00
38.83769,-3.071819,1298.00
38.87141,-3.072136,1300.00
38.90569,-3.072029,1302.00
38.93750,-3.071747,1304.00
38.96986,-3.072132,1306.00
39.00504,-3.071332,1308.00
39.03908,-3.071561,1310.00
39.06969,-3.071672,1312.00
39.10366,-3.072282,1314.00
39.13809,-3.072607,1316.00
39.17082,-3.072521,1318.00
39.20261,-3.072418,1320.00
39.23687,-3.072495,1322.00
39.27091,-3.071991,1324.00
39.30563,-3.071998,1326.00
39.33864,-3.072167,1328.00
39.37155,-3.072029,1330.00
39.40481,-3.071686,1332.00
39.43929,-3.071372,1334.00
39.47241,-3.071323,1336.00
39.50505,-3.071745,1338.00
39.53705,-3.072004,1340.00
39.56996,-3.071467,1342.00
39.60545,-3.072039,1344.00
39.63691,-3.072090,1346.00
39.67074,-3.072702,1348.00
39.70298,-3.072833,1350.00
39.73988,-3.072499,1352.00
39.77537,-3.072752,1354.00
39.80927,-3.073123,1356.00
39.84327,-3.073117,1358.00
39.87460,-3.073179,1360.00
39.90799,-3.073278,1362.00
39.93981,-3.073175,1364.00
39.97310,-3.073282,1366.00
40.00808,-3.073594,1368.00
40.04090,-3.074004,1370.00
40.07247,-3.074160,1372.00
40.10427,-3.073680,1374.00
40.13647,-3.073609,1376.00
40.17092,-3.073559,1378.00
40.20588,-3.074009,1380.00
40.23930,-3.073994,1382.00
40.27296,-3.074281,1384.00
40.30523,-3.074686,1386.00
40.33587,-3.074832,1388.00
40.36768,-3.074910,1390.00
40.40250,-3.075221,1392.00
40.43451,-3.075199,1394.00
40.47143,-3.075768,1396.00
40.50421,-3.075893,1398.00
40.53782,-3.075586,1400.00
40.56986,-3.076009,1402.00
40.60218,-3.076257,1404.00
40.63708,-3.076460,1406.00
40.66747,-3.076564,1408.00
40.70082,-3.076869,1410.00
40.73369,-3.077352,1412.00
40.76726,-3.077052,1414.00
40.79829,-3.077066,1416.00
40.83200,-3.077423,1418.00
40.86323,-3.077217,1420.00
40.89994,-3.076887,1422.00
40.93206,-3.076460,1424.00
40.96460,-3.076090,1426.00
40.99671,-3.076035,1428.00
41.02920,-3.076114,1430.00
41.06208,-3.076842,1432.00
41.09509,-3.077172,1434.00
41.12975,-3.077051,1436.00
41.16505,-3.077228,1438.00
41.19664,-3.077948,1440.00
41.22990,-3.078106,1442.00
41.26086,-3.078564,1444.00
41.29202,-3.078466,1446.00
41.32597,-3.078060,1448.00
41.35961,-3.077635,1450.00
41.39345,-3.076956,1452.00
41.42581,-3.076850,1454.00
41.45890,-3.077141,1456.00
41.49381,-3.077817,1458.00
41.52699,-3.078064,1460.00
41.55833,-3.078047,1462.00
41.59081,-3.078269,1464.00
41.62367,-3.078597,1466.00
41.65459,-3.078892,1468.00
41.68536,-3.079055,1470.00
41.71538,-3.079203,1472.00
41.74947,-3.078995,1474.00
41.78262,-3.078800,1476.00
41.81911,-3.078738,1478.00
41.85266,-3.079201,1480.00
41.88301,-3.079119,1482.00
41.91735,-3.078396,1484.00
41.95401,-3.078199,1486.00
41.98608,-3.077879,1488.00
42.01621,-3.077471,1490.00
42.05052,-3.077260,1492.00
42.08366,-3.076817,1494.00
42.11455,-3.075861,1496.00
42.14790,-3.075690,1498.00
42.18147,-3.075228,1500.00
42.21149,-3.075202,1502.00
42.24475,-3.075522,1504.00
42.27804,-3.075537,1506.00
42.31178,-3.075168,1508.00
42.34404,-3.075037,1510.00
42.38056,-3.075587,1512.00
42.41070,-3.076179,1514.00
42.44399,-3.076656,1516.00
42.47923,-3.077145,1518.00
42.51214,-3.077282,1520.00
42.54615,-3.077139,1522.00
42.57798,-3.077121,1524.00
42.61050,-3.077320,1526.00
42.64497,-3.077350,1528.00
42.67801,-3.077288,1530.00
42.71331,-3.077340,1532.00
42.74504,-3.076972,1534.00
42.78001,-3.077568,1536.00
42.81055,-3.077592,1538.00
42.84477,-3.077713,1540.00
42.87886,-3.078113,1542.00
42.91479,-3.078253,1544.00
42.94839,-3.078548,1546.00
42.98231,-3.078128,1548.00
43.01668,-3.078181,1550.00
43.04890,-3.077824,1552.00
43.08085,-3.077808,1554.00
43.11290,-3.077605,1556.00
43.14418,-3.077799,1558.00
43.17470,-3.077549,1560.00
43.21000,-3.077377,1562.00
43.24022,-3.078100,1564.00
43.27474,-3.078085,1566.00
43.30873,-3.078572,1568.00
43.33874,-3.078206,1570.00
43.37272,-3.078471,1572.00
43.40574,-3.079121,1574.00
43.43969,-3.079405,1576.00
43.47447,-3.079685,1578.00
43.51229,-3.080092,1580.00
43.54401,-3.080567,1582.00
43.57687,-3.080344,1584.00
43.60738,-3.080499,1586.00
43.64263,-3.080390,1588.00
43.67699,-3.080448,1590.00
43.70927,-3.080206,1592.00
43.74183,-3.080361,1594.00
43.77313,-3.080765,1596.00
43.80562,-3.081576,1598.00
43.84043,-3.081266,1600.00
43.87289,-3.081362,1602.00
43.90170,-3.081831,1604.00
43.93758,-3.081541,1606.00
43.97124,-3.081428,1608.00
44.00573,-3.081307,1610.00
44.04018,-3.081285,1612.00
44.07055,-3.082274,1614.00
44.10481,-3.082727,1616.00
44.13691,-3.082503,1618.00
44.16964,-3.082547,1620.00
44.20280,-3.082545,1622.00
44.23604,-3.083452,1624.00
44.26877,-3.084012,1626.00
44.29914,-3.083668,1628.00
44.33156,-3.084023,1630.00
44.36540,-3.083114,1632.00
44.39975,-3.082818,1634.00
44.43176,-3.082921,1636.00
44.46658,-3.083072,1638.00
44.49906,-3.082934,1640.00
44.53173,-3.082966,1642.00
44.56617,-3.082827,1644.00
44.59764,-3.082884,1646.00
44.63102,-3.083199,1648.00
44.66376,-3.083516,1650.00
44.69564,-3.083211,1652.00
44.72962,-3.083339,1654.00
44.76329,-3.083283,1656.00
44.79576,-3.083278,1658.00
44.82565,-3.083559,1660.00
44.85907,-3.084221,1662.00
44.89291,-3.085255,1664.00
44.92499,-3.085146,1666.00
44.95835,-3.085294,1668.00
44.99294,-3.085492,1670.00
45.02611,-3.085455,1672.00
45.06110,-3.085681,1674.00
45.09130,-3.085884,1676.00
45.12657,-3.085902,1678.00
45.15977,-3.086752,1680.00
45.19041,-3.086878,1682.00
45.22509,-3.087211,1684.00
45.25783,-3.087649,1686.00
45.29123,-3.087457,1688.00
45.32490,-3.087359,1690.00
45.35711,-3.087214,1692.00
45.39222,-3.086915,1694.00
45.42347,-3.086914,1696.00
45.46026,-3.087119,1698.00
45.49421,-3.087331,1700.00
45.52686,-3.087169,1702.00
45.56489,-3.086280,1704.00
45.59871,-3.086236,1706.00
45.63312,-3.086453,1708.00
45.66521,-3.086256,1710.00
45.69728,-3.086493,1712.00
45.72810,-3.086894,1714.00
45.76063,-3.087444,1716.00
45.79466,-3.087444,1718.00
45.82796,-3.087678,1720.00
45.86031,-3.087863,1722.00
45.89262,-3.088057,1724.00
45.92540,-3.088851,1726.00
45.95903,-3.089845,1728.00
45.99092,-3.089822,1730.00
46.02398,-3.089949,1732.00
46.05630,-3.090221,1734.00
46.08966,-3.090196,1736.00
46.12164,-3.090067,1738.00
46.15726,-3.090404,1740.00
46.19080,-3.089805,1742.00
46.22234,-3.090087,1744.00
46.25673,-3.090363,1746.00
46.28938,-3.090477,1748.00
46.31955,-3.090193,1750.00
46.35411,-3.090006,1752.00
46.38718,-3.090022,1754.00
46.41954,-3.090481,1756.00
46.45199,-3.090826,1758.00
46.48666,-3.091003,1760.00
46.51868,-3.091273,1762.00
46.55269,-3.091879,1764.00
46.58553,-3.091735,1766.00
46.61645,-3.091776,1768.00
46.64894,-3.091961,1770.00
46.68342,-3.092395,1772.00
46.71761,-3.092895,1774.00
46.74963,-3.092477,1776.00
46.78318,-3.093007,1778.00
46.81439,-3.092766,1780.00
46.84832,-3.093167,1782.00
46.88093,-3.093078,1784.00
46.91381,-3.093449,1786.00
46.94779,-3.092943,1788.00
46.98005,-3.092655,1790.00
47.01316,-3.091724,1792.00
47.04628,-3.091364,1794.00
47.07664,-3.091280,1796.00
47.10971,-3.091340,1798.00
47.14442,-3.091668,1800.00
47.17921,-3.091793,1802.00
47.21437,-3.092043,1804.00
47.24602,-3.092329,1806.00
47.27970,-3.092064,1808.00
47.31165,-3.091784,1810.00
47.34480,-3.091467,1812.00
47.37733,-3.091551,1814.00
47.40891,-3.092019,1816.00
47.44498,-3.092197,1818.00
47.47750,-3.092453,1820.00
47.51125,-3.092242,1822.00
47.54511,-3.092223,1824.00
47.57712,-3.091977,1826.00
47.61306,-3.092146,1828.00
47.64574,-3.092345,1830.00
47.67928,-3.092969,1832.00
47.70879,-3.093442,1834.00
47.74374,-3.093254,1836.00
47.78063,-3.093478,1838.00
47.81305,-3.093704,1840.00
47.84547,-3.093876,1842.00
47.88064,-3.094111,1844.00
47.91383,-3.094120,1846.00
47.94744,-3.094353,1848.00
47.97936,-3.094716,1850.00
48.01326,-3.095054,1852.00
48.04500,-3.095379,1854.00
48.07788,-3.095566,1856.00
48.11192,-3.095990,1858.00
48.14433,-3.096425,1860.00
48.17883,-3.096318,1862.00
48.21034,-3.096831,1864.00
48.24705,-3.096755,1866.00
48.27995,-3.097012,1868.00
48.31243,-3.097461,1870.00
48.34407,-3.097504,1872.00
48.37795,-3.097555,1874.00
48.41398,-3.097104,1876.00
48.44665,-3.097383,1878.00
48.48099,-3.097358,1880.00
48.51401,-3.097564,1882.00
48.54640,-3.097650,1884.00
48.58000,-3.097736,1886.00
48.61212,-3.097963,1888.00
48.64791,-3.098190,1890.00
48.68104,-3.098503,1892.00
48.71357,-3.099053,1894.00
48.74509,-3.099880,1896.00
48.77813,-3.100567,1898.00
48.81276,-3.101015,1900.00
48.84563,-3.100926,1902.00
48.87928,-3.101227,1904.00
48.91162,-3.101455,1906.00
48.94473,-3.101141,1908.00
48.97783,-3.101286,1910.00
49.01283,-3.100914,1912.00
49.04440,-3.100378,1914.00
49.07832,-3.100725,1916.00
49.11172,-3.101048,1918.00
49.14521,-3.101011,1920.00
49.17807,-3.101429,1922.00
49.21156,-3.101065,1924.00
49.24243,-3.100979,1926.00
49.27542,-3.101369,1928.00
49.31132,-3.101608,1930.00
49.34383,-3.101311,1932.00
49.37709,-3.101720,1934.00
49.40828,-3.101747,1936.00
49.44229,-3.101911,1938.00
49.47521,-3.102717,1940.00
49.50694,-3.102727,1942.00
49.54060,-3.103513,1944.00
49.57361,-3.103762,1946.00
49.60509,-3.104067,1948.00
49.63844,-3.104376,1950.00
49.67149,-3.104549,1952.00
49.70452,-3.105358,1954.00
49.73757,-3.105613,1956.00
49.77036,-3.106071,1958.00
49.80335,-3.106685,1960.00
49.83665,-3.106792,1962.00
49.86826,-3.107005,1964.00
49.90127,-3.106927,1966.00
49.93595,-3.107662,1968.00
49.96898,-3.107464,1970.00
50.00156,-3.107401,1972.00
50.03637,-3.107978,1974.00
50.06845,-3.108374,1976.00
50.10427,-3.108669,1978.00
50.13475,-3.109106,1980.00
50.16824,-3.109201,1982.00
50.20124,-3.108969,1984.00
50.23600,-3.108820,1986.00
50.26797,-3.109267,1988.00
50.30406,-3.109735,1990.00
50.33582,-3.109509,1992.00
50.36834,-3.109947,1994.00
50.40159,-3.110045,1996.00
50.43331,-3.109846,1998.00
50.46858,-3.109664,2000.00
50.50248,-3.109510,2002.00
50.53313,-3.109058,2004.00
50.56665,-3.108730,2006.00
50.60122,-3.108059,2008.00
50.63622,-3.108138,2010.00
50.66884,-3.108392,2012.00
50.70083,-3.108823,2014.00
50.73446,-3.109031,2016.00
50.76798,-3.109158,2018.00
50.80169,-3.109137,2020.00
50.83602,-3.108728,2022.00
50.87067,-3.108671,2024.00
50.90137,-3.109348,2026.00
50.93495,-3.110012,2028.00
50.96706,-3.109748,2030.00
51.00095,-3.110150,2032.00
51.03629,-3.110806,2034.00
51.06991,-3.111304,2036.00
51.10229,-3.111441,2038.00
51.13570,-3.111632,2040.00
51.16850,-3.111894,2042.00
51.20137,-3.112374,2044.00
51.23379,-3.112318,2046.00
51.26638,-3.112158,2048.00
51.30096,-3.112778,2050.00
51.33549,-3.113053,2052.00
51.36775,-3.113752,2054.00
51.40132,-3.113799,2056.00
51.43322,-3.113518,2058.00
51.47076,-3.113432,2060.00
51.50140,-3.113646,2062.00
51.53327,-3.113994,2064.00
51.56668,-3.113775,2066.00
51.59948,-3.113790,2068.00
51.63429,-3.114720,2070.00
51.66506,-3.115221,2072.00
51.69818,-3.115513,2074.00
51.73191,-3.116145,2076.00
51.76477,-3.116247,2078.00
51.79905,-3.116465,2080.00
51.83333,-3.116949,2082.00
51.86447,-3.117271,2084.00
51.89831,-3.117708,2086.00
51.93078,-3.118515,2088.00
51.96425,-3.119317,2090.00
51.99925,-3.119632,2092.00
52.03133,-3.120160,2094.00
52.06536,-3.120582,2096.00
52.09963,-3.120023,2098.00
52.13250,-3.119610,2100.00
52.16557,-3.119297,2102.00
52.20069,-3.119564,2104.00
52.23376,-3.119358,2106.00
52.26855,-3.119717,2108.00
52.30141,-3.120268,2110.00
52.33349,-3.120717,2112.00
52.36700,-3.120830,2114.00
52.40020,-3.120575,2116.00
52.43420,-3.120660,2118.00
52.46823,-3.120618,2120.00
52.49866,-3.120755,2122.00
52.53109,-3.121656,2124.00
52.56356,-3.122006,2126.00
52.59851,-3.121881,2128.00
52.62978,-3.121666,2130.00
52.66372,-3.121680,2132.00
52.69712,-3.121671,2134.00
52.73144,-3.121436,2136.00
52.76384,-3.121618,2138.00
52.79730,-3.121207,2140.00
52.82957,-3.121461,2142.00
52.86297,-3.121910,2144.00
52.89563,-3.122420,2146.00
52.92967,-3.122202,2148.00
52.96285,-3.122162,2150.00
52.99510,-3.122608,2152.00
53.03043,-3.122790,2154.00
53.06259,-3.122870,2156.00
53.09573,-3.123549,2158.00
53.12885,-3.123495,2160.00
53.16068,-3.122937,2162.00
53.19291,-3.123849,2164.00
53.22656,-3.124372,2166.00
53.26009,-3.124541,2168.00
53.29435,-3.124472,2170.00
53.32804,-3.125249,2172.00
53.36188,-3.125682,2174.00
53.39159,-3.125910,2176.00
53.42195,-3.126140,2178.00
53.45650,-3.126705,2180.00
53.49049,-3.127760,2182.00
53.52128,-3.127976,2184.00
53.55620,-3.128946,2186.00
53.58958,-3.129782,2188.00
53.62206,-3.129981,2190.00
53.65536,-3.129987,2192.00
53.68920,-3.130098,2194.00
53.72113,-3.130747,2196.00
53.75424,-3.131036,2198.00
53.78575,-3.131281,2200.00
53.81940,-3.131519,2202.00
53.85226,-3.130838,2204.00
53.88578,-3.130949,2206.00
53.92123,-3.130487,2208.00
53.95530,-3.130416,2210.00
53.98662,-3.130963,2212.00
54.01926,-3.131901,2214.00
54.05410,-3.132399,2216.00
54.08585,-3.132727,2218.00
54.11926,-3.133159,2220.00
54.14997,-3.133371,2222.00
54.18605,-3.133317,2224.00
54.22009,-3.133381,2226.00
54.25296,-3.133232,2228.00
54.28576,-3.133716,2230.00
54.32052,-3.134012,2232.00
54.35407,-3.133568,2234.00
54.38500,-3.133667,2236.00
54.42071,-3.133620,2238.00
54.45401,-3.133501,2240.00
54.48549,-3.133564,2242.00
54.52160,-3.133892,2244.00
54.55444,-3.134419,2246.00
54.58486,-3.134808,2248.00
54.62119,-3.135123,2250.00
54.65368,-3.134660,2252.00
54.68553,-3.134683,2254.00
54.72074,-3.134983,2256.00
54.75331,-3.135717,2258.00
54.78643,-3.136044,2260.00
54.81794,-3.135675,2262.00
54.85310,-3.135922,2264.00
54.88709,-3.135837,2266.00
54.92003,-3.135953,2268.00
54.95147,-3.136208,2270.00
54.98096,-3.136492,2272.00
55.01669,-3.137145,2274.00
55.04972,-3.136981,2276.00
55.08127,-3.137849,2278.00
55.11590,-3.138648,2280.00
55.14915,-3.139038,2282.00
55.18334,-3.139537,2284.00
55.21733,-3.140057,2286.00
55.24789,-3.140380,2288.00
55.27972,-3.140701,2290.00
55.31456,-3.141191,2292.00
55.35008,-3.141096,2294.00
55.37980,-3.141415,2296.00
55.41582,-3.141756,2298.00
55.45096,-3.142144,2300.00
55.48251,-3.142837,2302.00
55.51534,-3.143037,2304.00
55.54914,-3.143339,2306.00
55.58004,-3.143549,2308.00
55.61319,-3.144158,2310.00
55.64931,-3.143978,2312.00
55.68215,-3.144519,2314.00
55.71449,-3.144434,2316.00
55.74814,-3.144262,2318.00
55.78229,-3.144442,2320.00
55.81289,-3.144574,2322.00
55.84726,-3.144418,2324.00
55.87926,-3.144695,2326.00
55.91350,-3.144904,2328.00
55.94662,-3.144820,2330.00
55.97906,-3.145696,2332.00
56.01305,-3.146269,2334.00
56.04600,-3.146338,2336.00
56.07928,-3.145378,2338.00
56.11086,-3.145095,2340.00
56.14625,-3.145404,2342.00
56.18095,-3.146318,2344.00
56.21313,-3.146885,2346.00
56.24766,-3.146750,2348.00
56.27820,-3.147101,2350.00
56.31053,-3.147316,2352.00
56.34531,-3.147768,2354.00
56.37761,-3.148420,2356.00
56.41137,-3.148730,2358.00
56.44427,-3.149101,2360.00
56.47669,-3.150265,2362.00
56.50810,-3.150444,2364.00
56.54420,-3.150985,2366.00
56.57582,-3.151671,2368.00
56.60952,-3.150901,2370.00
56.64627,-3.151235,2372.00
56.67700,-3.152322,2374.00
56.71049,-3.153051,2376.00
56.74336,-3.152931,2378.00
56.77285,-3.153550,2380.00
56.80873,-3.154048,2382.00
56.84284,-3.154970,2384.00
56.87388,-3.155250,2386.00
56.91060,-3.155509,2388.00
56.94355,-3.156537,2390.00
56.97524,-3.157405,2392.00
57.00652,-3.158376,2394.00
57.04045,-3.158322,2396.00
57.07463,-3.158544,2398.00
57.10519,-3.159072,2400.00
57.13769,-3.159116,2402.00
57.17110,-3.159391,2404.00
57.20414,-3.159381,2406.00
57.24067,-3.160100,2408.00
57.27617,-3.159970,2410.00
57.30622,-3.160806,2412.00
57.33645,-3.161066,2414.00
57.36868,-3.161030,2416.00
57.40354,-3.161601,2418.00
57.43707,-3.161946,2420.00
57.46686,-3.161781,2422.00
57.50106,-3.162319,2424.00
57.53520,-3.162798,2426.00
57.56890,-3.162668,2428.00
57.60305,-3.162781,2430.00
57.63665,-3.162792,2432.00
57.66793,-3.164077,2434.00
57.70240,-3.164487,2436.00
57.73684,-3.164580,2438.00
57.77047,-3.164752,2440.00
57.80260,-3.165116,2442.00
57.83554,-3.165551,2444.00
57.86780,-3.166300,2446.00
57.90057,-3.166416,2448.00
57.93481,-3.166213,2450.00
57.96957,-3.166870,2452.00
58.00088,-3.167118,2454.00
58.03474,-3.167761,2456.00
58.06543,-3.168376,2458.00
58.09989,-3.168641,2460.00
58.13335,-3.169115,2462.00
58.16755,-3.170082,2464.00
58.20347,-3.170570,2466.00
58.23661,-3.170603,2468.00
58.26957,-3.171336,2470.00
58.30161,-3.172403,2472.00
58.33401,-3.173283,2474.00
58.36717,-3.173964,2476.00
58.39901,-3.174072,2478.00
58.43163,-3.174247,2480.00
58.46331,-3.174709,2482.00
58.49579,-3.175696,2484.00
58.52981,-3.176103,2486.00
58.56404,-3.175916,2488.00
58.59899,-3.176054,2490.00
58.63182,-3.176104,2492.00
58.66342,-3.176803,2494.00
58.69596,-3.176996,2496.00
58.73113,-3.177447,2498.00
58.76282,-3.178280,2500.00
58.79644,-3.179429,2502.00
58.83124,-3.180846,2504.00
58.86502,-3.181452,2506.00
58.89941,-3.181624,2508.00
58.93194,-3.181916,2510.00
58.96421,-3.181747,2512.00
58.99911,-3.182687,2514.00
59.03214,-3.183427,2516.00
59.06482,-3.184002,2518.00
59.09699,-3.184707,2520.00
59.12953,-3.184802,2522.00
59.16466,-3.185047,2524.00
59.19702,-3.185102,2526.00
59.22992,-3.184946,2528.00
59.26337,-3.185301,2530.00
59.29561,-3.185873,2532.00
59.33121,-3.186400,2534.00
59.36304,-3.186336,2536.00
59.39499,-3.186187,2538.00
59.42828,-3.186288,2540.00
59.46148,-3.187000,2542.00
59.49251,-3.187429,2544.00
59.52672,-3.187907,2546.00
59.56038,-3.188205,2548.00
59.59431,-3.187805,2550.00
59.62756,-3.188149,2552.00
59.66133,-3.188883,2554.00
59.69353,-3.189574,2556.00
59.72850,-3.190724,2558.00
59.76253,-3.191389,2560.00
59.79455,-3.191541,2562.00
59.82649,-3.191320,2564.00
59.86341,-3.192125,2566.00
59.89450,-3.193121,2568.00
59.92842,-3.193774,2570.00
59.96228,-3.194534,2572.00
59.99327,-3.194850,2574.00
60.02638,-3.195090,2576.00
60.06182,-3.195185,2578.00
60.09649,-3.195235,2580.00
60.12937,-3.195593,2582.00
60.16017,-3.195676,2584.00
60.19405,-3.196352,2586.00
60.22749,-3.196480,2588.00
60.25877,-3.196032,2590.00
60.29339,-3.196102,2592.00
60.32662,-3.196524,2594.00
60.36149,-3.196456,2596.00
60.39344,-3.196977,2598.00
60.42482,-3.197383,2600.00
60.45922,-3.198304,2602.00
60.49204,-3.198893,2604.00
60.52579,-3.199597,2606.00
60.55852,-3.200023,2608.00
60.59390,-3.200125,2610.00
60.62653,-3.199575,2612.00
60.65937,-3.200236,2614.00
60.69088,-3.201546,2616.00
60.72658,-3.202070,2618.00
60.75925,-3.202988,2620.00
60.78998,-3.203013,2622.00
60.82390,-3.203436,2624.00
60.85593,-3.204138,2626.00
60.88967,-3.204745,2628.00
60.92237,-3.205425,2630.00
60.95713,-3.206392,2632.00
60.99085,-3.206982,2634.00
61.02394,-3.207919,2636.00
61.05902,-3.208131,2638.00
61.08917,-3.208612,2640.00
61.12370,-3.209101,2642.00
61.15887,-3.209019,2644.00
61.18802,-3.209789,2646.00
61.22187,-3.210231,2648.00
61.25339,-3.210567,2650.00
61.28622,-3.211145,2652.00
61.31801,-3.211678,2654.00
61.35345,-3.212461,2656.00
61.38830,-3.213502,2658.00
61.41917,-3.214476,2660.00
61.45381,-3.215149,2662.00
61.48468,-3.215506,2664.00
61.51780,-3.215577,2666.00
61.55200,-3.216388,2668.00
61.58686,-3.217264,2670.00
61.61720,-3.217907,2672.00
61.65092,-3.218495,2674.00
61.68499,-3.219193,2676.00
61.71866,-3.218904,2678.00
61.75255,-3.219530,2680.00
61.78509,-3.220267,2682.00
61.81618,-3.220931,2684.00
61.85178,-3.221656,2686.00
61.88533,-3.221617,2688.00
61.91750,-3.222145,2690.00
61.94992,-3.222626,2692.00
61.98309,-3.223035,2694.00
62.01601,-3.222917,2696.00
62.04828,-3.222750,2698.00
62.08500,-3.223300,2700.00
62.11925,-3.223916,2702.00
62.15049,-3.224471,2704.00
62.18304,-3.225153,2706.00
62.21592,-3.226610,2708.00
62.24792,-3.227023,2710.00
62.27996,-3.227510,2712.00
62.31468,-3.228045,2714.00
62.34566,-3.228956,2716.00
62.37724,-3.229575,2718.00
62.41050,-3.230832,2720.00
62.44412,-3.231634,2722.00
62.47972,-3.231346,2724.00
62.51160,-3.231709,2726.00
62.54434,-3.232623,2728.00
62.57524,-3.233438,2730.00
62.60857,-3.234373,2732.00
62.64030,-3.235120,2734.00
62.67421,-3.236588,2736.00
62.70787,-3.237977,2738.00
62.73900,-3.238675,2740.00
62.77058,-3.240020,2742.00
62.80296,-3.241039,2744.00
62.83715,-3.241357,2746.00
62.87014,-3.242107,2748.00
62.90387,-3.242974,2750.00
62.93556,-3.243548,2752.00
62.96666,-3.244055,2754.00
62.99994,-3.244423,2756.00
63.03406,-3.245043,2758.00
63.06728,-3.246211,2760.00
63.10107,-3.246918,2762.00
63.12986,-3.247437,2764.00
63.16425,-3.247268,2766.00
63.19684,-3.247803,2768.00
63.23193,-3.248594,2770.00
63.26564,-3.249342,2772.00
63.29818,-3.250407,2774.00
63.33164,-3.251205,2776.00
63.36722,-3.251723,2778.00
63.40094,-3.251787,2780.00
63.43254,-3.252150,2782.00
63.46466,-3.252773,2784.00
63.49939,-3.254034,2786.00
63.53263,-3.254780,2788.00
63.56545,-3.254878,2790.00
63.60198,-3.255137,2792.00
63.63355,-3.255601,2794.00
63.66646,-3.256264,2796.00
63.70105,-3.257234,2798.00
63.73300,-3.257403,2800.00
63.76208,-3.257974,2802.00
63.79758,-3.258627,2804.00
63.83163,-3.258960,2806.00
63.86264,-3.259149,2808.00
63.89583,-3.259783,2810.00
63.92842,-3.260264,2812.00
63.96087,-3.260517,2814.00
63.99671,-3.261201,2816.00
64.02787,-3.262441,2818.00
64.06127,-3.263578,2820.00
64.09490,-3.264158,2822.00
64.12735,-3.265409,2824.00
64.15828,-3.266377,2826.00
64.19116,-3.267161,2828.00
64.22866,-3.267473,2830.00
64.25957,-3.268165,2832.00
64.29251,-3.268445,2834.00
64.32767,-3.268423,2836.00
64.35990,-3.268734,2838.00
64.39128,-3.269501,2840.00
64.42452,-3.270680,2842.00
64.45563,-3.270603,2844.00
64.49125,-3.271894,2846.00
64.52366,-3.272983,2848.00
64.55704,-3.273322,2850.00
64.59129,-3.274757,2852.00
64.62332,-3.275926,2854.00
64.65683,-3.276959,2856.00
64.68959,-3.277599,2858.00
64.72379,-3.278751,2860.00
64.75825,-3.279807,2862.00
64.79147,-3.280255,2864.00
64.82307,-3.280977,2866.00
64.85659,-3.282079,2868.00
64.88873,-3.282227,2870.00
64.92151,-3.282591,2872.00
64.95520,-3.283876,2874.00
64.98636,-3.284266,2876.00
65.01987,-3.284311,2878.00
65.05301,-3.284636,2880.00
65.08399,-3.285240,2882.00
65.11893,-3.286531,2884.00
65.15076,-3.287003,2886.00
65.18115,-3.287230,2888.00
65.21341,-3.288512,2890.00
65.24976,-3.289229,2892.00
65.28307,-3.289818,2894.00
65.31574,-3.290683,2896.00
65.35005,-3.290655,2898.00
65.38147,-3.291561,2900.00
65.41442,-3.292368,2902.00
65.44706,-3.293163,2904.00
65.48131,-3.293892,2906.00
65.51421,-3.294997,2908.00
65.54885,-3.296227,2910.00
65.58289,-3.297042,2912.00
65.61538,-3.298280,2914.00
65.64887,-3.299751,2916.00
65.68357,-3.300123,2918.00
65.71215,-3.300943,2920.00
65.74680,-3.302635,2922.00
65.78074,-3.303869,2924.00
65.81488,-3.304614,2926.00
65.84679,-3.304945,2928.00
65.88003,-3.305649,2930.00
65.91429,-3.307345,2932.00
65.94838,-3.308238,2934.00
65.97979,-3.308373,2936.00
66.01424,-3.309532,2938.00
66.04748,-3.310924,2940.00
66.08085,-3.311831,2942.00
66.11362,-3.312939,2944.00
66.14673,-3.313319,2946.00
66.17953,-3.313268,2948.00
66.21385,-3.314454,2950.00
66.24899,-3.315812,2952.00
66.28094,-3.316588,2954.00
66.31564,-3.317549,2956.00
66.34756,-3.317721,2958.00
66.38106,-3.318033,2960.00
66.41180,-3.318755,2962.00
66.44394,-3.319641,2964.00
66.47673,-3.320523,2966.00
66.51163,-3.321463,2968.00
66.54475,-3.322936,2970.00
66.57864,-3.323339,2972.00
66.61241,-3.324033,2974.00
66.64426,-3.325421,2976.00
66.67780,-3.326633,2978.00
66.71095,-3.327087,2980.00
66.74321,-3.327590,2982.00
66.77546,-3.328189,2984.00
66.80937,-3.328860,2986.00
66.84295,-3.329535,2988.00
66.87688,-3.330058,2990.00
66.91114,-3.330922,2992.00
66.94526,-3.332177,2994.00
66.97861,-3.333173,2996.00
67.00860,-3.334280,2998.00
67.04331,-3.335416,3000.00
67.07777,-3.336356,3002.00
67.10822,-3.337066,3004.00
67.14212,-3.338603,3006.00
67.17652,-3.339915,3008.00
67.21113,-3.340577,3010.00
67.24390,-3.341557,3012.00
67.27606,-3.342535,3014.00
67.31004,-3.343386,3016.00
67.34354,-3.344237,3018.00
67.37590,-3.345648,3020.00
67.40855,-3.346594,3022.00
67.43978,-3.347634,3024.00
67.47594,-3.348423,3026.00
67.50956,-3.348570,3028.00
67.54297,-3.349138,3030.00
67.57728,-3.350188,3032.00
67.60953,-3.350925,3034.00
67.64103,-3.352197,3036.00
67.67550,-3.353182,3038.00
67.70903,-3.354433,3040.00
67.74193,-3.354429,3042.00
67.77633,-3.355075,3044.00
67.80820,-3.355259,3046.00
67.84179,-3.355865,3048.00
67.87496,-3.356611,3050.00
67.90926,-3.357614,3052.00
67.94195,-3.358703,3054.00
67.97327,-3.359096,3056.00
68.00663,-3.360365,3058.00
68.03870,-3.360572,3060.00
68.07155,-3.361419,3062.00
68.10738,-3.361858,3064.00
68.13779,-3.362635,3066.00
68.16886,-3.363908,3068.00
68.20514,-3.365142,3070.00
68.24149,-3.366104,3072.00
68.27450,-3.366572,3074.00
68.30765,-3.366937,3076.00
68.34145,-3.368261,3078.00
68.37393,-3.368969,3080.00
68.40775,-3.369598,3082.00
68.43737,-3.369943,3084.00
68.47021,-3.371248,3086.00
68.50654,-3.371721,3088.00
68.53678,-3.372366,3090.00
68.57198,-3.373456,3092.00
68.60449,-3.374403,3094.00
68.63614,-3.375882,3096.00
68.66942,-3.376937,3098.00
68.70405,-3.377223,3100.00
68.73689,-3.378201,3102.00
68.77108,-3.378134,3104.00
68.80567,-3.378797,3106.00
68.83797,-3.380116,3108.00
68.87004,-3.381192,3110.00
68.90435,-3.381992,3112.00
68.93698,-3.383258,3114.00
68.96991,-3.383937,3116.00
69.00130,-3.384318,3118.00
69.03362,-3.385858,3120.00
69.06843,-3.387570,3122.00
69.09956,-3.388744,3124.00
69.12804,-3.390133,3126.00
69.16566,-3.391289,3128.00
69.20080,-3.392033,3130.00
69.23211,-3.393084,3132.00
69.26688,-3.394821,3134.00
69.29872,-3.395815,3136.00
69.33217,-3.396246,3138.00
69.36535,-3.397064,3140.00
69.39944,-3.398673,3142.00
69.43224,-3.399941,3144.00
69.46619,-3.400868,3146.00
69.49800,-3.401469,3148.00
69.53140,-3.402058,3150.00
69.56506,-3.402816,3152.00
69.59827,-3.403108,3154.00
69.63127,-3.403204,3156.00
69.66520,-3.403780,3158.00
69.69928,-3.404105,3160.00
69.73159,-3.404905,3162.00
69.76662,-3.405989,3164.00
69.79735,-3.406951,3166.00
69.83025,-3.408112,3168.00
69.86341,-3.408674,3170.00
69.89703,-3.410420,3172.00
69.93048,-3.412157,3174.00
69.96315,-3.413569,3176.00
69.99744,-3.415489,3178.00
70.03160,-3.416429,3180.00
70.06425,-3.417098,3182.00
70.09668,-3.418430,3184.00
70.12954,-3.419520,3186.00
70.16166,-3.419882,3188.00
70.19514,-3.420601,3190.00
70.23053,-3.421406,3192.00
70.26301,-3.423014,3194.00
70.29486,-3.424101,3196.00
70.32807,-3.424998,3198.00
70.36286,-3.426580,3200.00
70.39577,-3.426919,3202.00
70.42852,-3.427114,3204.00
70.46373,-3.428623,3206.00
70.49549,-3.429377,3208.00
70.52756,-3.429910,3210.00
70.56244,-3.430783,3212.00
70.59600,-3.432302,3214.00
70.62822,-3.432945,3216.00
70.66216,-3.434115,3218.00
70.69480,-3.435383,3220.00
70.72939,-3.435917,3222.00
70.76267,-3.436914,3224.00
70.79600,-3.438300,3226.00
70.82844,-3.439716,3228.00
70.86220,-3.440714,3230.00
70.89522,-3.441536,3232.00
70.93015,-3.442711,3234.00
70.96010,-3.444130,3236.00
70.99673,-3.445275,3238.00
71.03086,-3.446503,3240.00
71.06396,-3.447432,3242.00
71.09918,-3.447920,3244.00
71.13096,-3.448583,3246.00
71.16370,-3.449456,3248.00
71.19889,-3.450341,3250.00
71.23377,-3.451772,3252.00
71.26758,-3.453103,3254.00
71.29819,-3.453896,3256.00
71.33177,-3.454438,3258.00
71.36435,-3.455114,3260.00
71.39646,-3.455704,3262.00
71.42951,-3.456568,3264.00
71.46217,-3.458238,3266.00
71.49402,-3.459939,3268.00
71.52707,-3.461406,3270.00
71.56082,-3.463425,3272.00
71.59578,-3.464175,3274.00
71.62721,-3.465364,3276.00
71.65911,-3.466607,3278.00
71.69392,-3.467378,3280.00
71.72780,-3.467838,3282.00
71.75860,-3.467422,3284.00
71.79177,-3.467899,3286.00
71.82561,-3.469591,3288.00
71.86032,-3.470624,3290.00
71.89399,-3.471494,3292.00
71.92912,-3.472739,3294.00
71.96018,-3.473255,3296.00
71.99036,-3.473391,3298.00
72.02352,-3.473884,3300.00
72.05641,-3.473857,3302.00
72.09210,-3.473873,3304.00
72.12348,-3.475012,3306.00
72.16174,-3.476048,3308.00
72.19674,-3.477754,3310.00
72.22926,-3.479526,3312.00
72.26073,-3.480945,3314.00
72.29295,-3.481253,3316.00
72.32580,-3.482244,3318.00
72.35798,-3.483473,3320.00
72.39192,-3.483794,3322.00
72.42504,-3.484310,3324.00
72.45684,-3.485050,3326.00
72.49018,-3.484430,3328.00
72.52363,-3.483989,3330.00
72.55861,-3.483317,3332.00
72.58898,-3.482932,3334.00
72.62317,-3.482929,3336.00
72.65457,-3.482283,3338.00
72.68909,-3.481313,3340.00
72.72279,-3.480483,3342.00
72.75560,-3.480481,3344.00
72.78887,-3.480620,3346.00
72.82343,-3.479457,3348.00
72.85482,-3.478394,3350.00
72.88947,-3.476958,3352.00
72.92148,-3.474835,3354.00
72.95366,-3.472274,3356.00
72.98859,-3.468811,3358.00
73.02159,-3.464242,3360.00
73.05176,-3.458708,3362.00
73.08229,-3.450133,3364.00
73.11641,-3.439744,3366.00
73.14907,-3.425516,3368.00
73.18383,-3.406381,3370.00
73.21483,-3.378874,3372.00
73.24784,-3.339401,3374.00
73.28126,-3.283492,3376.00
73.31477,-3.201767,3378.00
73.34804,-3.086559,3380.00
73.38189,-2.921326,3382.00
73.41539,-2.677525,3384.00
73.44695,-2.309196,3386.00
73.48136,-1.748365,3388.00
73.51416,-0.932765,3390.00
73.54747,0.119418,3392.00
73.57900,1.111568,3394.00
73.61454,1.498864,3396.00
73.64844,1.160822,3398.00
73.68287,0.401473,3400.00
73.71368,-0.405849,3402.00
73.74546,-1.079834,3404.00
73.77725,-1.604225,3406.00
73.81483,-2.010624,3408.00
73.84600,-2.327658,3410.00
73.88096,-2.577785,3412.00
73.91669,-2.775634,3414.00
73.94814,-2.933987,3416.00
73.98092,-3.060331,3418.00
74.01406,-3.160640,3420.00
74.05031,-3.241512,3422.00
74.08350,-3.306356,3424.00
74.11645,-3.358245,3426.00
74.14824,-3.399722,3428.00
74.18420,-3.432019,3430.00
74.21719,-3.457886,3432.00
74.24980,-3.478387,3434.00
74.28324,-3.493915,3436.00
74.31737,-3.506165,3438.00
74.35105,-3.516499,3440.00
74.38400,-3.524468,3442.00
74.41547,-3.530717,3444.00
74.44938,-3.535695,3446.00
74.48316,-3.539567,3448.00
74.51520,-3.541771,3450.00
74.54931,-3.543699,3452.00
74.58274,-3.545711,3454.00
74.61544,-3.546508,3456.00
74.64902,-3.545385,3458.00
74.68053,-3.544230,3460.00
74.71311,-3.543058,3462.00
74.74861,-3.541461,3464.00
74.78153,-3.539296,3466.00
74.81219,-3.536554,3468.00
74.84458,-3.532502,3470.00
74.88056,-3.528515,3472.00
74.91475,-3.524191,3474.00
74.94895,-3.518727,3476.00
74.98247,-3.512833,3478.00
75.01315,-3.504883,3480.00
75.04767,-3.495657,3482.00
75.08200,-3.484709,3484.00
75.11428,-3.472781,3486.00
75.14642,-3.458281,3488.00
75.17834,-3.440858,3490.00
75.21264,-3.420254,3492.00
75.24659,-3.395632,3494.00
75.28130,-3.366361,3496.00
75.31319,-3.330208,3498.00
75.34574,-3.285056,3500.00
75.37801,-3.228800,3502.00
75.41100,-3.158451,3504.00
75.44193,-3.068207,3506.00
75.47830,-2.948625,3508.00
75.51014,-2.788405,3510.00
75.54322,-2.568198,3512.00
75.57716,-2.254543,3514.00
75.60946,-1.792080,3516.00
75.64233,-1.088976,3518.00
75.67549,-0.003802,3520.00
75.70979,1.581947,3522.00
75.74206,3.755648,3524.00
75.77350,6.571011,3526.00
75.80717,9.536613,3528.00
75.83976,11.018664,3530.00
75.87322,9.870661,3532.00
75.90678,7.319913,3534.00
75.93893,4.869770,3536.00
75.97189,2.999368,3538.00
76.00636,1.593382,3540.00
76.03880,0.512711,3542.00
76.07283,-0.332571,3544.00
76.10761,-1.006987,3546.00
76.14135,-1.552592,3548.00
76.17258,-1.994257,3550.00
76.20567,-2.350400,3552.00
76.23904,-2.636597,3554.00
76.27235,-2.866976,3556.00
76.30503,-3.051796,3558.00
76.33647,-3.199095,3560.00
76.37251,-3.316916,3562.00
76.40256,-3.410924,3564.00
76.43705,-3.487081,3566.00
76.46937,-3.547962,3568.00
76.50445,-3.596890,3570.00
76.53781,-3.635423,3572.00
76.56855,-3.666503,3574.00
76.60084,-3.692271,3576.00
76.63679,-3.713205,3578.00
76.67011,-3.730762,3580.00
76.70289,-3.745138,3582.00
76.73418,-3.756695,3584.00
76.76970,-3.767261,3586.00
76.80246,-3.775735,3588.00
76.83649,-3.783449,3590.00
76.86985,-3.789446,3592.00
76.90219,-3.794366,3594.00
76.93513,-3.798774,3596.00
76.96997,-3.803046,3598.00
77.00146,-3.806922,3600.00
77.03662,-3.809814,3602.00
77.06975,-3.813043,3604.00
77.10269,-3.816404,3606.00
77.13572,-3.818553,3608.00
77.16989,-3.821205,3610.00
77.20125,-3.823731,3612.00
77.23218,-3.826150,3614.00
77.26704,-3.828591,3616.00
77.30301,-3.831861,3618.00
77.33574,-3.834817,3620.00
77.36913,-3.837995,3622.00
77.40160,-3.841666,3624.00
77.43378,-3.843757,3626.00
77.46723,-3.845684,3628.00
77.50071,-3.849067,3630.00
77.53313,-3.851836,3632.00
77.56723,-3.854742,3634.00
77.60107,-3.858055,3636.00
77.63375,-3.859923,3638.00
77.66717,-3.862409,3640.00
77.69995,-3.865428,3642.00
77.73391,-3.867939,3644.00
77.76604,-3.870563,3646.00
77.79818,-3.873049,3648.00
77.83275,-3.875516,3650.00
77.86514,-3.878078,3652.00
77.89825,-3.880385,3654.00
77.93158,-3.881846,3656.00
77.96526,-3.884403,3658.00
77.99949,-3.887142,3660.00
78.03344,-3.889222,3662.00
78.06633,-3.891414,3664.00
78.10169,-3.892891,3666.00
78.13493,-3.893740,3668.00
78.16659,-3.893748,3670.00
78.19984,-3.894299,3672.00
78.23302,-3.895988,3674.00
78.26878,-3.897622,3676.00
78.30135,-3.899459,3678.00
78.33466,-3.902303,3680.00
78.36934,-3.907650,3682.00
78.39947,-3.912708,3684.00
78.43392,-3.917021,3686.00
78.46671,-3.920875,3688.00
78.49896,-3.925931,3690.00
78.53361,-3.930048,3692.00
78.56614,-3.934122,3694.00
78.60253,-3.937267,3696.00
78.63672,-3.940590,3698.00
78.66876,-3.944207,3700.00
78.70190,-3.947712,3702.00
78.73621,-3.950765,3704.00
78.76828,-3.953724,3706.00
78.80384,-3.955187,3708.00
78.83742,-3.957330,3710.00
78.86877,-3.960281,3712.00
78.90078,-3.963831,3714.00
78.93750,-3.967276,3716.00
78.97106,-3.970950,3718.00
79.00360,-3.974032,3720.00
79.03767,-3.978064,3722.00
79.06736,-3.981159,3724.00
79.10303,-3.983738,3726.00
79.13841,-3.987021,3728.00
79.17390,-3.990899,3730.00
79.20287,-3.994403,3732.00
79.23679,-3.998354,3734.00
79.26931,-4.002017,3736.00
79.30366,-4.005013,3738.00
79.33720,-4.007345,3740.00
79.36966,-4.010732,3742.00
79.40501,-4.013693,3744.00
79.43666,-4.017552,3746.00
79.46961,-4.020528,3748.00
79.50384,-4.022258,3750.00
79.53648,-4.023370,3752.00
79.56951,-4.026514,3754.00
79.60282,-4.030680,3756.00
79.63803,-4.034399,3758.00
79.67078,-4.038927,3760.00
79.70353,-4.042389,3762.00
79.73607,-4.046191,3764.00
79.77164,-4.050014,3766.00
79.80169,-4.053350,3768.00
79.83365,-4.056425,3770.00
79.86726,-4.059194,3772.00
79.89780,-4.063370,3774.00
79.93311,-4.067150,3776.00
79.96532,-4.070586,3778.00

