$DSC2
$Conventional
$Adiabatic Mode
$Scanrate Corrected-Programmed
$Baseline Subtraction Method: 0 File: NONE
$DP Corrected
$RTD Corrected
$MidGain FB,  0.75 
$ADCGainCode:  0 
$ 10 
$NOT
$ 10 
$ 0            20            25           False
$ 0 
$ 15           80            60            5             0             2             2             0 
$ 15           80            60            5             0             2             2             0 
$ 15           80            60            5             0             2             2             0 
$ 15           80            60            5             0             2             2             0 
$ 15           80            60            5             0             2             2             0 
$ 15           80            60            5             0             2             2             0 
$ 15           80            60            5             0             2             2             0 
$ 15           80            60            5             0             2             2             0 
$ 15           80            60            5             0             2             2             0 
$ 15           80            60            5             0             2             2             0 
# 0 
# 0.5197
# 0
# 11.63 
# 0.75 
# 10.743 
? 
% VPDSC02.06.462
% 0.51971 
% 11.63 
%-0.995356 , 100.17434 
% 3.676 
% 250 ,       -22.5 
% 1000.3 , 1000.3 
% 0.88219 ,-0.02026 
%-0.08266 , 0.02515 
% 1 , 0.055 
% 0.0522 
% 1 , 130 
% 0.080433 , 0.056504 
% 0 , 8 
% 0 , 18 
% 0.072589046661 ,-0.003235099108 , 8.240903228419E-06 , 2.357972384211E-07 ,-7.440723641986E-10 
% VPViewer2000 Ver: 1.4.14
@3
17.36649,-2.953969,2.00
17.40097,-2.953525,4.00
17.43389,-2.952835,6.00
17.46864,-2.951710,8.00
17.50197,-2.950962,10.00
17.53441,-2.951152,12.00
17.56753,-2.950923,14.00
17.60083,-2.950938,16.00
17.63142,-2.950543,18.00
17.66558,-2.950427,20.00
17.69822,-2.950805,22.00
17.73218,-2.950995,24.00
17.76682,-2.950626,26.00
17.79988,-2.950533,28.00
17.83261,-2.950186,30.00
17.86517,-2.950478,32.00
17.89758,-2.950155,34.00
17.93114,-2.949780,36.00
17.96368,-2.950282,38.00
18.00040,-2.950359,40.00
18.03188,-2.950373,42.00
18.06177,-2.949814,44.00
18.09571,-2.949897,46.00
18.13108,-2.950057,48.00
18.16237,-2.950116,50.00
18.19579,-2.950052,52.00
18.22903,-2.950623,54.00
18.26163,-2.950673,56.00
18.29490,-2.950509,58.00
18.32521,-2.950176,60.00
18.35577,-2.949663,62.00
18.38722,-2.949892,64.00
18.42243,-2.950109,66.00
18.45597,-2.949849,68.00
18.49003,-2.950231,70.00
18.52269,-2.949432,72.00
18.55823,-2.948663,74.00
18.58830,-2.948187,76.00
18.62334,-2.947811,78.00
18.65497,-2.947773,80.00
18.68903,-2.947587,82.00
18.72222,-2.946758,84.00
18.75652,-2.947347,86.00
18.78833,-2.947129,88.00
18.82179,-2.946395,90.00
18.85622,-2.945722,92.00
18.88772,-2.945109,94.00
18.92012,-2.944677,96.00
18.95318,-2.944456,98.00
18.98640,-2.944427,100.00
19.01814,-2.944625,102.00
19.05193,-2.944977,104.00
19.08564,-2.944997,106.00
19.11899,-2.944654,108.00
19.15293,-2.943839,110.00
19.18629,-2.943995,112.00
19.21895,-2.943803,114.00
19.25046,-2.943381,116.00
19.28407,-2.943463,118.00
19.31787,-2.943114,120.00
19.34854,-2.943340,122.00
19.37928,-2.943329,124.00
19.41214,-2.942852,126.00
19.44393,-2.942536,128.00
19.47679,-2.942423,130.00
19.50954,-2.941976,132.00
19.54382,-2.941697,134.00
19.57619,-2.941638,136.00
19.60919,-2.941727,138.00
19.64235,-2.941467,140.00
19.67566,-2.941842,142.00
19.70815,-2.941656,144.00
19.74311,-2.941376,146.00
19.77735,-2.941399,148.00
19.80851,-2.941639,150.00
19.83979,-2.941446,152.00
19.87291,-2.941492,154.00
19.90529,-2.941070,156.00
19.93904,-2.940948,158.00
19.97214,-2.941089,160.00
20.00417,-2.941093,162.00
20.03566,-2.940784,164.00
20.06732,-2.940603,166.00
20.10111,-2.940284,168.00
20.13630,-2.940052,170.00
20.16983,-2.940053,172.00
20.20265,-2.940099,174.00
20.23350,-2.939989,176.00
20.26727,-2.939695,178.00
20.30182,-2.940030,180.00
20.33620,-2.940081,182.00
20.36882,-2.940282,184.00
20.40157,-2.940260,186.00
20.43516,-2.940516,188.00
20.46603,-2.940367,190.00
20.50223,-2.940417,192.00
20.53528,-2.940111,194.00
20.56755,-2.940168,196.00
20.60181,-2.940396,198.00
20.63406,-2.940700,200.00
20.66910,-2.940710,202.00
20.70254,-2.940864,204.00
20.73662,-2.940624,206.00
20.76793,-2.940862,208.00
20.79911,-2.941458,210.00
20.83280,-2.941116,212.00
20.86688,-2.941043,214.00
20.89980,-2.940868,216.00
20.93256,-2.940823,218.00
20.96511,-2.940868,220.00
20.99827,-2.940516,222.00
21.03337,-2.939776,224.00
21.06631,-2.939786,226.00
21.09821,-2.940020,228.00
21.13413,-2.940138,230.00
21.16542,-2.939471,232.00
21.19945,-2.939230,234.00
21.22920,-2.938569,236.00
21.26203,-2.938771,238.00
21.29594,-2.938561,240.00
21.33030,-2.937770,242.00
21.36221,-2.937661,244.00
21.39500,-2.937397,246.00
21.42919,-2.937945,248.00
21.46170,-2.938258,250.00
21.49151,-2.938328,252.00
21.52599,-2.937646,254.00
21.55940,-2.936782,256.00
21.59200,-2.936619,258.00
21.62643,-2.936661,260.00
21.65870,-2.935825,262.00
21.69093,-2.935486,264.00
21.72375,-2.935152,266.00
21.75389,-2.934678,268.00
21.78867,-2.935087,270.00
21.82317,-2.934594,272.00
21.85580,-2.934025,274.00
21.88901,-2.933870,276.00
21.92134,-2.934129,278.00
21.95370,-2.934702,280.00
21.98441,-2.934425,282.00
22.02048,-2.934120,284.00
22.05257,-2.933818,286.00
22.08450,-2.933949,288.00
22.11865,-2.933568,290.00
22.15183,-2.933451,292.00
22.18503,-2.933652,294.00
22.21386,-2.933800,296.00
22.24583,-2.933714,298.00
22.28186,-2.933607,300.00
22.31399,-2.933632,302.00
22.34512,-2.933787,304.00
22.37885,-2.933881,306.00
22.41424,-2.933603,308.00
22.44886,-2.934055,310.00
22.48159,-2.933862,312.00
22.51539,-2.933181,314.00
22.54755,-2.933512,316.00
22.58051,-2.933762,318.00
22.61249,-2.933790,320.00
22.64429,-2.933784,322.00
22.67759,-2.933622,324.00
22.71154,-2.933355,326.00
22.74479,-2.933348,328.00
22.77806,-2.933608,330.00
22.81048,-2.933122,332.00
22.84113,-2.933286,334.00
22.87513,-2.933485,336.00
22.91123,-2.933404,338.00
22.94235,-2.933672,340.00
22.97642,-2.933495,342.00
23.00928,-2.933412,344.00
23.04295,-2.933625,346.00
23.07500,-2.933367,348.00
23.10725,-2.933443,350.00
23.14049,-2.933242,352.00
23.17277,-2.933250,354.00
23.20736,-2.933156,356.00
23.23995,-2.933309,358.00
23.27214,-2.933055,360.00
23.30734,-2.933415,362.00
23.34050,-2.933764,364.00
23.37362,-2.933880,366.00
23.40652,-2.933483,368.00
23.43819,-2.933166,370.00
23.46839,-2.932996,372.00
23.50221,-2.932649,374.00
23.53609,-2.932601,376.00
23.57158,-2.932825,378.00
23.60723,-2.933112,380.00
23.63838,-2.932027,382.00
23.67097,-2.932373,384.00
23.70550,-2.932386,386.00
23.73689,-2.932746,388.00
23.77077,-2.933271,390.00
23.80313,-2.933831,392.00
23.83493,-2.934004,394.00
23.86738,-2.934478,396.00
23.90029,-2.934830,398.00
23.93382,-2.935348,400.00
23.96433,-2.935782,402.00
23.99705,-2.935933,404.00
24.03027,-2.935906,406.00
24.06523,-2.936462,408.00
24.09704,-2.936582,410.00
24.13066,-2.937042,412.00
24.16473,-2.937273,414.00
24.19947,-2.937378,416.00
24.23255,-2.937795,418.00
24.26446,-2.937606,420.00
24.29704,-2.937657,422.00
24.33005,-2.937415,424.00
24.36455,-2.937689,426.00
24.39805,-2.937501,428.00
24.42958,-2.937137,430.00
24.46294,-2.937202,432.00
24.49505,-2.937463,434.00
24.53001,-2.937011,436.00
24.56212,-2.936249,438.00
24.59266,-2.935989,440.00
24.62525,-2.936201,442.00
24.66060,-2.935819,444.00
24.69415,-2.935716,446.00
24.72618,-2.935133,448.00
24.76115,-2.935023,450.00
24.79409,-2.935269,452.00
24.82861,-2.935066,454.00
24.86038,-2.934921,456.00
24.89390,-2.935059,458.00
24.92650,-2.935299,460.00
24.96000,-2.935267,462.00
24.99310,-2.935358,464.00
25.02539,-2.935644,466.00
25.06066,-2.935629,468.00
25.09190,-2.935946,470.00
25.12452,-2.936655,472.00
25.15785,-2.936925,474.00
25.19126,-2.936918,476.00
25.22263,-2.937251,478.00
25.25788,-2.937589,480.00
25.29118,-2.937850,482.00
25.32461,-2.938307,484.00
25.35605,-2.938560,486.00
25.38881,-2.938743,488.00
25.41907,-2.939541,490.00
25.45263,-2.939987,492.00
25.48751,-2.940254,494.00
25.52017,-2.940516,496.00
25.55175,-2.940491,498.00
25.58628,-2.940670,500.00
25.61871,-2.940844,502.00
25.65112,-2.941623,504.00
25.68536,-2.942501,506.00
25.71835,-2.942880,508.00
25.75162,-2.943313,510.00
25.78473,-2.944036,512.00
25.81823,-2.944782,514.00
25.84935,-2.945854,516.00
25.88148,-2.946375,518.00
25.91383,-2.947300,520.00
25.94829,-2.948217,522.00
25.98210,-2.949377,524.00
26.01435,-2.950452,526.00
26.04887,-2.951401,528.00
26.08111,-2.952468,530.00
26.11235,-2.953692,532.00
26.14755,-2.954473,534.00
26.17807,-2.955477,536.00
26.21201,-2.956761,538.00
26.24337,-2.958254,540.00
26.27750,-2.959795,542.00
26.31078,-2.960530,544.00
26.34368,-2.961522,546.00
26.37663,-2.963137,548.00
26.41244,-2.964353,550.00
26.44451,-2.965871,552.00
26.47645,-2.966770,554.00
26.51109,-2.967895,556.00
26.54348,-2.968691,558.00
26.57575,-2.970227,560.00
26.60847,-2.971690,562.00
26.64409,-2.973603,564.00
26.67640,-2.975684,566.00
26.70880,-2.977394,568.00
26.74137,-2.979925,570.00
26.77653,-2.982513,572.00
26.80961,-2.985130,574.00
26.84014,-2.987871,576.00
26.87298,-2.990769,578.00
26.90651,-2.994404,580.00
26.93894,-2.997970,582.00
26.96949,-3.001941,584.00
27.00338,-3.006245,586.00
27.03607,-3.010917,588.00
27.07156,-3.016643,590.00
27.10691,-3.022501,592.00
27.13865,-3.029292,594.00
27.17109,-3.036503,596.00
27.20355,-3.044856,598.00
27.23548,-3.053795,600.00
27.26990,-3.064073,602.00
27.30314,-3.075221,604.00
27.33506,-3.087853,606.00
27.36957,-3.103002,608.00
27.40253,-3.118626,610.00
27.43464,-3.137345,612.00
27.47025,-3.159060,614.00
27.50364,-3.183706,616.00
27.53663,-3.213464,618.00
27.56987,-3.248987,620.00
27.60338,-3.291395,622.00
27.63640,-3.343340,624.00
27.67068,-3.406941,626.00
27.70147,-3.485593,628.00
27.73655,-3.585931,630.00
27.76902,-3.713743,632.00
27.80447,-3.882187,634.00
27.83845,-4.105851,636.00
27.86904,-4.404738,638.00
27.90021,-4.787460,640.00
27.93304,-5.230674,642.00
27.96649,-5.713239,644.00
28.00019,-6.262348,646.00
28.03631,-6.891863,648.00
28.07112,-7.618854,650.00
28.10321,-8.399477,652.00
28.13650,-9.022409,654.00
28.16959,-9.233775,656.00
28.20219,-8.937157,658.00
28.23521,-8.255866,660.00
28.26998,-7.451549,662.00
28.30150,-6.697305,664.00
28.33436,-6.043164,666.00
28.36945,-5.492586,668.00
28.40128,-5.033862,670.00
28.43235,-4.655173,672.00
28.46678,-4.343056,674.00
28.50019,-4.086338,676.00
28.53467,-3.874987,678.00
28.56587,-3.701208,680.00
28.59845,-3.559392,682.00
28.62975,-3.442354,684.00
28.66257,-3.346186,686.00
28.69648,-3.267179,688.00
28.73123,-3.203060,690.00
28.76291,-3.150201,692.00
28.79671,-3.108099,694.00
28.82947,-3.073062,696.00
28.86360,-3.044031,698.00
28.89731,-3.020262,700.00
28.93055,-3.001613,702.00
28.96240,-2.986685,704.00
28.99507,-2.974409,706.00
29.02899,-2.963738,708.00
29.06372,-2.955846,710.00
29.09687,-2.948686,712.00
29.12932,-2.943803,714.00
29.16389,-2.939577,716.00
29.19695,-2.937100,718.00
29.22939,-2.935680,720.00
29.26030,-2.935137,722.00
29.29273,-2.934739,724.00
29.32628,-2.935064,726.00
29.35882,-2.934819,728.00
29.39373,-2.934417,730.00
29.42508,-2.933155,732.00
29.45987,-2.931004,734.00
29.49149,-2.928491,736.00
29.52608,-2.926001,738.00
29.55964,-2.924569,740.00
29.59244,-2.922910,742.00
29.62745,-2.921452,744.00
29.66095,-2.920162,746.00
29.69314,-2.919038,748.00
29.72663,-2.918094,750.00
29.76140,-2.917220,752.00
29.79698,-2.916878,754.00
29.82775,-2.916223,756.00
29.86106,-2.915301,758.00
29.89431,-2.914795,760.00
29.92529,-2.914245,762.00
29.95731,-2.913384,764.00
29.98798,-2.912811,766.00
30.02065,-2.911918,768.00
30.05421,-2.911924,770.00
30.08756,-2.911906,772.00
30.12035,-2.911128,774.00
30.15260,-2.911406,776.00
30.18852,-2.910670,778.00
30.22028,-2.910267,780.00
30.25418,-2.910063,782.00
30.28749,-2.910426,784.00
30.31708,-2.910262,786.00
30.35326,-2.910143,788.00
30.38608,-2.910324,790.00
30.41897,-2.910474,792.00
30.45209,-2.910231,794.00
30.48627,-2.909974,796.00
30.52086,-2.910384,798.00
30.55200,-2.910472,800.00
30.58751,-2.910522,802.00
30.61998,-2.910478,804.00
30.65470,-2.910402,806.00
30.68923,-2.910680,808.00
30.72176,-2.910897,810.00
30.75430,-2.910889,812.00
30.78801,-2.910779,814.00
30.82146,-2.910882,816.00
30.85483,-2.910560,818.00
30.88998,-2.910677,820.00
30.92438,-2.910701,822.00
30.95680,-2.910327,824.00
30.98921,-2.909634,826.00
31.02151,-2.909646,828.00
31.05546,-2.909128,830.00
31.08991,-2.908822,832.00
31.12542,-2.908888,834.00
31.15807,-2.908570,836.00
31.19224,-2.907874,838.00
31.22703,-2.907770,840.00
31.25967,-2.908050,842.00
31.29062,-2.908478,844.00
31.32454,-2.908567,846.00
31.35869,-2.908065,848.00
31.39104,-2.908061,850.00
31.42233,-2.907953,852.00
31.45396,-2.907885,854.00
31.48930,-2.907936,856.00
31.52065,-2.907937,858.00
31.55404,-2.907555,860.00
31.58737,-2.907230,862.00
31.62219,-2.907125,864.00
31.65370,-2.907669,866.00
31.68754,-2.907650,868.00
31.71976,-2.908074,870.00
31.75250,-2.908041,872.00
31.78503,-2.908121,874.00
31.82229,-2.907889,876.00
31.85504,-2.908049,878.00
31.88590,-2.908881,880.00
31.91970,-2.908669,882.00
31.95445,-2.908480,884.00
31.98694,-2.908373,886.00
32.01947,-2.907914,888.00
32.05252,-2.907919,890.00
32.08654,-2.907611,892.00
32.11968,-2.907486,894.00
32.15209,-2.907671,896.00
32.18538,-2.907587,898.00
32.21904,-2.907544,900.00
32.25191,-2.907181,902.00
32.28430,-2.907681,904.00
32.31684,-2.907584,906.00
32.34875,-2.908052,908.00
32.38298,-2.908169,910.00
32.41628,-2.908700,912.00
32.45121,-2.908149,914.00
32.48356,-2.907952,916.00
32.51796,-2.908039,918.00
32.54998,-2.907963,920.00
32.58345,-2.907769,922.00
32.61503,-2.907751,924.00
32.65068,-2.908298,926.00
32.68435,-2.908597,928.00
32.71883,-2.908721,930.00
32.75034,-2.909069,932.00
32.78342,-2.908698,934.00
32.81596,-2.908713,936.00
32.84862,-2.909068,938.00
32.88006,-2.909001,940.00
32.91452,-2.909478,942.00
32.94923,-2.909545,944.00
32.98320,-2.909403,946.00
33.01574,-2.909492,948.00
33.04704,-2.908939,950.00
33.08006,-2.908857,952.00
33.11525,-2.908773,954.00
33.15032,-2.908468,956.00
33.18313,-2.908303,958.00
33.21770,-2.907721,960.00
33.25126,-2.906833,962.00
33.28545,-2.906610,964.00
33.31698,-2.906430,966.00
33.34729,-2.906450,968.00
33.38346,-2.906305,970.00
33.41684,-2.905865,972.00
33.44689,-2.905776,974.00
33.48058,-2.905818,976.00
33.51289,-2.906273,978.00
33.54391,-2.906777,980.00
33.57865,-2.906528,982.00
33.61200,-2.906935,984.00
33.64535,-2.907340,986.00
33.67755,-2.907398,988.00
33.71407,-2.907294,990.00
33.74570,-2.907585,992.00
33.78068,-2.907614,994.00
33.81284,-2.907608,996.00
33.84649,-2.907795,998.00
33.87643,-2.907133,1000.00
33.90697,-2.906800,1002.00
33.94031,-2.906963,1004.00
33.97235,-2.906964,1006.00
34.00832,-2.906397,1008.00
34.04141,-2.906066,1010.00
34.07358,-2.905270,1012.00
34.10576,-2.904514,1014.00
34.13771,-2.904561,1016.00
34.17302,-2.904635,1018.00
34.20598,-2.904309,1020.00
34.23933,-2.904307,1022.00
34.27184,-2.904571,1024.00
34.30506,-2.904532,1026.00
34.34114,-2.904425,1028.00
34.37250,-2.904219,1030.00
34.40555,-2.904079,1032.00
34.43823,-2.903967,1034.00
34.47369,-2.903974,1036.00
34.50628,-2.904157,1038.00
34.53569,-2.904603,1040.00
34.57045,-2.904588,1042.00
34.60256,-2.905163,1044.00
34.63533,-2.905114,1046.00
34.67043,-2.905114,1048.00
34.70237,-2.905575,1050.00
34.73574,-2.905740,1052.00
34.76739,-2.906265,1054.00
34.80192,-2.906318,1056.00
34.83534,-2.906377,1058.00
34.86652,-2.905712,1060.00
34.89967,-2.905714,1062.00
34.93409,-2.906427,1064.00
34.97017,-2.906621,1066.00
35.00138,-2.906889,1068.00
35.03267,-2.906881,1070.00
35.06542,-2.906778,1072.00
35.09852,-2.906566,1074.00
35.13219,-2.906007,1076.00
35.16623,-2.906285,1078.00
35.19994,-2.906386,1080.00
35.23196,-2.906457,1082.00
35.26499,-2.906151,1084.00
35.29847,-2.906621,1086.00
35.33024,-2.906461,1088.00
35.36362,-2.906223,1090.00
35.39539,-2.906400,1092.00
35.42929,-2.906639,1094.00
35.46315,-2.906747,1096.00
35.49775,-2.906703,1098.00
35.53197,-2.906613,1100.00
35.56608,-2.905580,1102.00
35.59614,-2.905760,1104.00
35.63070,-2.905487,1106.00
35.66476,-2.905936,1108.00
35.69931,-2.905104,1110.00
35.73245,-2.905047,1112.00
35.76539,-2.905092,1114.00
35.79832,-2.904561,1116.00
35.83340,-2.904854,1118.00
35.86661,-2.904543,1120.00
35.89837,-2.904570,1122.00
35.93250,-2.904511,1124.00
35.96602,-2.904865,1126.00
35.99736,-2.905216,1128.00
36.02870,-2.905833,1130.00
36.06538,-2.905707,1132.00
36.09807,-2.906000,1134.00
36.13170,-2.906471,1136.00
36.16502,-2.906200,1138.00
36.19768,-2.905789,1140.00
36.23170,-2.905317,1142.00
36.26567,-2.905367,1144.00
36.29771,-2.905411,1146.00
36.32991,-2.905691,1148.00
36.36519,-2.905969,1150.00
36.39738,-2.905585,1152.00
36.43022,-2.905367,1154.00
36.46465,-2.905146,1156.00
36.49536,-2.904669,1158.00
36.52896,-2.904745,1160.00
36.56055,-2.904576,1162.00
36.59339,-2.905198,1164.00
36.62653,-2.905347,1166.00
36.65978,-2.905400,1168.00
36.69475,-2.905306,1170.00
36.72792,-2.905633,1172.00
36.76110,-2.906283,1174.00
36.79496,-2.905578,1176.00
36.82768,-2.905458,1178.00
36.85991,-2.905871,1180.00
36.89442,-2.905835,1182.00
36.92690,-2.905293,1184.00
36.95822,-2.905238,1186.00
36.99156,-2.904975,1188.00
37.02563,-2.904850,1190.00
37.05457,-2.904332,1192.00
37.08882,-2.903693,1194.00
37.12310,-2.902702,1196.00
37.15720,-2.902721,1198.00
37.19051,-2.903286,1200.00
37.22296,-2.902926,1202.00
37.25539,-2.902998,1204.00
37.28877,-2.903172,1206.00
37.32108,-2.903241,1208.00
37.35386,-2.903238,1210.00
37.38853,-2.903538,1212.00
37.42227,-2.904495,1214.00
37.45448,-2.904597,1216.00
37.48840,-2.904603,1218.00
37.52197,-2.904629,1220.00
37.55571,-2.904716,1222.00
37.59004,-2.904410,1224.00
37.62052,-2.904791,1226.00
37.65569,-2.904562,1228.00
37.68862,-2.904608,1230.00
37.72110,-2.905349,1232.00
37.75314,-2.905293,1234.00
37.78624,-2.905254,1236.00
37.82182,-2.905592,1238.00
37.85411,-2.905238,1240.00
37.88451,-2.904971,1242.00
37.92084,-2.905129,1244.00
37.95306,-2.904517,1246.00
37.98665,-2.904918,1248.00
38.01904,-2.905332,1250.00
38.04803,-2.905226,1252.00
38.08223,-2.905358,1254.00
38.11872,-2.906054,1256.00
38.15266,-2.906303,1258.00
38.18524,-2.906874,1260.00
38.21702,-2.906721,1262.00
38.24985,-2.906772,1264.00
38.28392,-2.906717,1266.00
38.31674,-2.906709,1268.00
38.35055,-2.906140,1270.00
38.38373,-2.905872,1272.00
38.41582,-2.905703,1274.00
38.44902,-2.905068,1276.00
38.48174,-2.904129,1278.00
38.51450,-2.904143,1280.00
38.54826,-2.904038,1282.00
38.58192,-2.904351,1284.00
38.61440,-2.904694,1286.00
38.64784,-2.905155,1288.00
38.68095,-2.905521,1290.00
38.71495,-2.905766,1292.00
38.74692,-2.905743,1294.00
38.77948,-2.906033,1296.00
38.81292,-2.905782,1298.00
38.84344,-2.905953,1300.00
38.87678,-2.905625,1302.00
38.90942,-2.905478,1304.00
38.94172,-2.905463,1306.00
38.97577,-2.905617,1308.00
39.00906,-2.904989,1310.00
39.04118,-2.905111,1312.00
39.07541,-2.905562,1314.00
39.10926,-2.905590,1316.00
39.14403,-2.905417,1318.00
39.17537,-2.905381,1320.00
39.21038,-2.905687,1322.00
39.24187,-2.905576,1324.00
39.27293,-2.906022,1326.00
39.30813,-2.906099,1328.00
39.34118,-2.906395,1330.00
39.37385,-2.906304,1332.00
39.40708,-2.906115,1334.00
39.44133,-2.906159,1336.00
39.47441,-2.905463,1338.00
39.50795,-2.905817,1340.00
39.54301,-2.906080,1342.00
39.57437,-2.906192,1344.00
39.60756,-2.906202,1346.00
39.64152,-2.906487,1348.00
39.67532,-2.906582,1350.00
39.70679,-2.906378,1352.00
39.73959,-2.906698,1354.00
39.77249,-2.907139,1356.00
39.80353,-2.907050,1358.00
39.84037,-2.906695,1360.00
39.87439,-2.906395,1362.00
39.91185,-2.905840,1364.00
39.94762,-2.905369,1366.00
39.97696,-2.904983,1368.00
40.00915,-2.904755,1370.00
40.04179,-2.904235,1372.00
40.07712,-2.904289,1374.00
40.10805,-2.904065,1376.00
40.13773,-2.903893,1378.00
40.17788,-2.903245,1380.00
40.20561,-2.902948,1382.00
40.23901,-2.903333,1384.00
40.27400,-2.904442,1386.00
40.30495,-2.904648,1388.00
40.33977,-2.904683,1390.00
40.37294,-2.904371,1392.00
40.40326,-2.903777,1394.00
40.43704,-2.903669,1396.00
40.47019,-2.903710,1398.00
40.50247,-2.903625,1400.00
40.53713,-2.903231,1402.00
40.56901,-2.903463,1404.00
40.60194,-2.904021,1406.00
40.63571,-2.904342,1408.00
40.66955,-2.904886,1410.00
40.70497,-2.904102,1412.00
40.73500,-2.904561,1414.00
40.76921,-2.904840,1416.00
40.80098,-2.905022,1418.00
40.83641,-2.905244,1420.00
40.86875,-2.906036,1422.00
40.90130,-2.906066,1424.00
40.93391,-2.906087,1426.00
40.96789,-2.906677,1428.00
41.00264,-2.906895,1430.00
41.03538,-2.906413,1432.00
41.06713,-2.906876,1434.00
41.10075,-2.907287,1436.00
41.13262,-2.907318,1438.00
41.16551,-2.906715,1440.00
41.19963,-2.906154,1442.00
41.23213,-2.906409,1444.00
41.26443,-2.905934,1446.00
41.29798,-2.905992,1448.00
41.33057,-2.905987,1450.00
41.36538,-2.905619,1452.00
41.40066,-2.905051,1454.00
41.43197,-2.904737,1456.00
41.46388,-2.904977,1458.00
41.49670,-2.904930,1460.00
41.53091,-2.905276,1462.00
41.56593,-2.904994,1464.00
41.59683,-2.905284,1466.00
41.62982,-2.905789,1468.00
41.66327,-2.906214,1470.00
41.69394,-2.906366,1472.00
41.72612,-2.906435,1474.00
41.76078,-2.905885,1476.00
41.79404,-2.905272,1478.00
41.82664,-2.904563,1480.00
41.85899,-2.904391,1482.00
41.89229,-2.904644,1484.00
41.92810,-2.904819,1486.00
41.95843,-2.905030,1488.00
41.99369,-2.905556,1490.00
42.02660,-2.906055,1492.00
42.05979,-2.906368,1494.00
42.09267,-2.906653,1496.00
42.12418,-2.907148,1498.00
42.15799,-2.908065,1500.00
42.19067,-2.908123,1502.00
42.22477,-2.909487,1504.00
42.25737,-2.909451,1506.00
42.29111,-2.909428,1508.00
42.32270,-2.909728,1510.00
42.35636,-2.909739,1512.00
42.39061,-2.909053,1514.00
42.42008,-2.909229,1516.00
42.45650,-2.908211,1518.00
42.49011,-2.908077,1520.00
42.52411,-2.907947,1522.00
42.55637,-2.908215,1524.00
42.59034,-2.908668,1526.00
42.62396,-2.908761,1528.00
42.65762,-2.908716,1530.00
42.69072,-2.909237,1532.00
42.72230,-2.909308,1534.00
42.75635,-2.909145,1536.00
42.79147,-2.909146,1538.00
42.82268,-2.909728,1540.00
42.85604,-2.909650,1542.00
42.89124,-2.909292,1544.00
42.92222,-2.908680,1546.00
42.95641,-2.907988,1548.00
42.98951,-2.907323,1550.00
43.02344,-2.907611,1552.00
43.05487,-2.908153,1554.00
43.08780,-2.908232,1556.00
43.12031,-2.907872,1558.00
43.15400,-2.907692,1560.00
43.18773,-2.907291,1562.00
43.22093,-2.907797,1564.00
43.25532,-2.908570,1566.00
43.28976,-2.908760,1568.00
43.32173,-2.909315,1570.00
43.35408,-2.910223,1572.00
43.38738,-2.910497,1574.00
43.42056,-2.910546,1576.00
43.45396,-2.910391,1578.00
43.48924,-2.909665,1580.00
43.52142,-2.909111,1582.00
43.55296,-2.909163,1584.00
43.58771,-2.908382,1586.00
43.62147,-2.907779,1588.00
43.65376,-2.907710,1590.00
43.68877,-2.907776,1592.00
43.72060,-2.907543,1594.00
43.75374,-2.907521,1596.00
43.78809,-2.907913,1598.00
43.81916,-2.908304,1600.00
43.85470,-2.908784,1602.00
43.88738,-2.909408,1604.00
43.92002,-2.909699,1606.00
43.95371,-2.909653,1608.00
43.98977,-2.909945,1610.00
44.01958,-2.911169,1612.00
44.05415,-2.911438,1614.00
44.08629,-2.911535,1616.00
44.11882,-2.910686,1618.00
44.15172,-2.910537,1620.00
44.18447,-2.910493,1622.00
44.21730,-2.910718,1624.00
44.25110,-2.910679,1626.00
44.28457,-2.910869,1628.00
44.31736,-2.911195,1630.00
44.35111,-2.911572,1632.00
44.38239,-2.911915,1634.00
44.41432,-2.912489,1636.00
44.44771,-2.912892,1638.00
44.48142,-2.912466,1640.00
44.51441,-2.912738,1642.00
44.54749,-2.913283,1644.00
44.58088,-2.913299,1646.00
44.61312,-2.912901,1648.00
44.64891,-2.912132,1650.00
44.68197,-2.912130,1652.00
44.71629,-2.912333,1654.00
44.75101,-2.912454,1656.00
44.78424,-2.912063,1658.00
44.81422,-2.912169,1660.00
44.84788,-2.912250,1662.00
44.88428,-2.912987,1664.00
44.91478,-2.913294,1666.00
44.94621,-2.913594,1668.00
44.98258,-2.913604,1670.00
45.01425,-2.913328,1672.00
45.04824,-2.912925,1674.00
45.07900,-2.912520,1676.00
45.11308,-2.912056,1678.00
45.14712,-2.912703,1680.00
45.17792,-2.912494,1682.00
45.21120,-2.911989,1684.00
45.24496,-2.912044,1686.00
45.27935,-2.911982,1688.00
45.31307,-2.912566,1690.00
45.34491,-2.912234,1692.00
45.37863,-2.912102,1694.00
45.41014,-2.912046,1696.00
45.44539,-2.912186,1698.00
45.47786,-2.912213,1700.00
45.50934,-2.912494,1702.00
45.54110,-2.912842,1704.00
45.57396,-2.912865,1706.00
45.60933,-2.913609,1708.00
45.64330,-2.913689,1710.00
45.67603,-2.913599,1712.00
45.71183,-2.913594,1714.00
45.74458,-2.913277,1716.00
45.77864,-2.913406,1718.00
45.80915,-2.913912,1720.00
45.84445,-2.914147,1722.00
45.87667,-2.914559,1724.00
45.91139,-2.914729,1726.00
45.94339,-2.914715,1728.00
45.97674,-2.914859,1730.00
46.01023,-2.914976,1732.00
46.04319,-2.915203,1734.00
46.07522,-2.914878,1736.00
46.10886,-2.914570,1738.00
46.14111,-2.914377,1740.00
46.17218,-2.913977,1742.00
46.20574,-2.913817,1744.00
46.23862,-2.913912,1746.00
46.27007,-2.914427,1748.00
46.30323,-2.914657,1750.00
46.33430,-2.915064,1752.00
46.36687,-2.915639,1754.00
46.39813,-2.916318,1756.00
46.42906,-2.916345,1758.00
46.46181,-2.916717,1760.00
46.49647,-2.916623,1762.00
46.52731,-2.916952,1764.00
46.56222,-2.917341,1766.00
46.59526,-2.916908,1768.00
46.62788,-2.916983,1770.00
46.66214,-2.916861,1772.00
46.69526,-2.917184,1774.00
46.72834,-2.917604,1776.00
46.76037,-2.918202,1778.00
46.79340,-2.918097,1780.00
46.82605,-2.918493,1782.00
46.85751,-2.918593,1784.00
46.89248,-2.918666,1786.00
46.92353,-2.918459,1788.00
46.95697,-2.918143,1790.00
46.98861,-2.918009,1792.00
47.02243,-2.918045,1794.00
47.05662,-2.918002,1796.00
47.08784,-2.917676,1798.00
47.11985,-2.917459,1800.00
47.15261,-2.917772,1802.00
47.18521,-2.917112,1804.00
47.21850,-2.916960,1806.00
47.25195,-2.917369,1808.00
47.28298,-2.917057,1810.00
47.31588,-2.917069,1812.00
47.34956,-2.917238,1814.00
47.38348,-2.918015,1816.00
47.41576,-2.918612,1818.00
47.44774,-2.918823,1820.00
47.48069,-2.918808,1822.00
47.51365,-2.918573,1824.00
47.54944,-2.918153,1826.00
47.58164,-2.918771,1828.00
47.61505,-2.918924,1830.00
47.64921,-2.918711,1832.00
47.68377,-2.918583,1834.00
47.71614,-2.918992,1836.00
47.74993,-2.919378,1838.00
47.78284,-2.920115,1840.00
47.81626,-2.920509,1842.00
47.85025,-2.921253,1844.00
47.88269,-2.921413,1846.00
47.91696,-2.922020,1848.00
47.94917,-2.922077,1850.00
47.98239,-2.922442,1852.00
48.01619,-2.922419,1854.00
48.04781,-2.921906,1856.00
48.08122,-2.921670,1858.00
48.11418,-2.921808,1860.00
48.14551,-2.921675,1862.00
48.17769,-2.921268,1864.00
48.21256,-2.920958,1866.00
48.24560,-2.921262,1868.00
48.27812,-2.921255,1870.00
48.31010,-2.921204,1872.00
48.34451,-2.921106,1874.00
48.37720,-2.921198,1876.00
48.41037,-2.921812,1878.00
48.44441,-2.922546,1880.00
48.47595,-2.923156,1882.00
48.50801,-2.923542,1884.00
48.53944,-2.923618,1886.00
48.57438,-2.923575,1888.00
48.60849,-2.923217,1890.00
48.64188,-2.923088,1892.00
48.67152,-2.923352,1894.00
48.70513,-2.922935,1896.00
48.74066,-2.922924,1898.00
48.77245,-2.923656,1900.00
48.80595,-2.923809,1902.00
48.84061,-2.924491,1904.00
48.87501,-2.925179,1906.00
48.90906,-2.925247,1908.00
48.94055,-2.925544,1910.00
48.97510,-2.925645,1912.00
49.00695,-2.925481,1914.00
49.03936,-2.925121,1916.00
49.07388,-2.924790,1918.00
49.10695,-2.924511,1920.00
49.14210,-2.924696,1922.00
49.17439,-2.925378,1924.00
49.20605,-2.926456,1926.00
49.23725,-2.926748,1928.00
49.27024,-2.927696,1930.00
49.30533,-2.928305,1932.00
49.33759,-2.928026,1934.00
49.36912,-2.928246,1936.00
49.40221,-2.927774,1938.00
49.43439,-2.927448,1940.00
49.46653,-2.927200,1942.00
49.49687,-2.926936,1944.00
49.53155,-2.927097,1946.00
49.56491,-2.927077,1948.00
49.59911,-2.927492,1950.00
49.62963,-2.927628,1952.00
49.66714,-2.927767,1954.00
49.70075,-2.927416,1956.00
49.73358,-2.927583,1958.00
49.76476,-2.928254,1960.00
49.79597,-2.928627,1962.00
49.82998,-2.928202,1964.00
49.86399,-2.928323,1966.00
49.89726,-2.927960,1968.00
49.93307,-2.928152,1970.00
49.96290,-2.927807,1972.00
49.99605,-2.927976,1974.00
50.03314,-2.928128,1976.00
50.06445,-2.928434,1978.00
50.09665,-2.929195,1980.00
50.13058,-2.930073,1982.00
50.16187,-2.930391,1984.00
50.19467,-2.931141,1986.00
50.22773,-2.931680,1988.00
50.26167,-2.931778,1990.00
50.29500,-2.931924,1992.00
50.32812,-2.931103,1994.00
50.36140,-2.931572,1996.00
50.39535,-2.932415,1998.00
50.42880,-2.932527,2000.00
50.46246,-2.931788,2002.00
50.49600,-2.931520,2004.00
50.53004,-2.930947,2006.00
50.56301,-2.931500,2008.00
50.59667,-2.930671,2010.00
50.62959,-2.930656,2012.00
50.66194,-2.930369,2014.00
50.69475,-2.930586,2016.00
50.72741,-2.930563,2018.00
50.76219,-2.931407,2020.00
50.79613,-2.931635,2022.00
50.83029,-2.932432,2024.00
50.86047,-2.932875,2026.00
50.89310,-2.933101,2028.00
50.92706,-2.933510,2030.00
50.95946,-2.934147,2032.00
50.99427,-2.934434,2034.00
51.02943,-2.935015,2036.00
51.05868,-2.935558,2038.00
51.09298,-2.935745,2040.00
51.12481,-2.935533,2042.00
51.15778,-2.934704,2044.00
51.18941,-2.933773,2046.00
51.22418,-2.932950,2048.00
51.25921,-2.932853,2050.00
51.28777,-2.933051,2052.00
51.32257,-2.933321,2054.00
51.35769,-2.933841,2056.00
51.39324,-2.934827,2058.00
51.42505,-2.935156,2060.00
51.45794,-2.935517,2062.00
51.49318,-2.936019,2064.00
51.52581,-2.936239,2066.00
51.55817,-2.936589,2068.00
51.59129,-2.936705,2070.00
51.62447,-2.937160,2072.00
51.65742,-2.937787,2074.00
51.68985,-2.938367,2076.00
51.72364,-2.938398,2078.00
51.75728,-2.938326,2080.00
51.79403,-2.937855,2082.00
51.82754,-2.936817,2084.00
51.85833,-2.936832,2086.00
51.89420,-2.936703,2088.00
51.92582,-2.936929,2090.00
51.95875,-2.937012,2092.00
51.99370,-2.937231,2094.00
52.02671,-2.937797,2096.00
52.05907,-2.938518,2098.00
52.09133,-2.939252,2100.00
52.12441,-2.939466,2102.00
52.15905,-2.940138,2104.00
52.19203,-2.940646,2106.00
52.22367,-2.940585,2108.00
52.25744,-2.941006,2110.00
52.29073,-2.941474,2112.00
52.32376,-2.941265,2114.00
52.35675,-2.941427,2116.00
52.39011,-2.941309,2118.00
52.42482,-2.941175,2120.00
52.45924,-2.940847,2122.00
52.49104,-2.941077,2124.00
52.52380,-2.941555,2126.00
52.55734,-2.941086,2128.00
52.59089,-2.940953,2130.00
52.62154,-2.941284,2132.00
52.65651,-2.941443,2134.00
52.69048,-2.942282,2136.00
52.72251,-2.942311,2138.00
52.75515,-2.942467,2140.00
52.78886,-2.942962,2142.00
52.82099,-2.943386,2144.00
52.85379,-2.944482,2146.00
52.88919,-2.944982,2148.00
52.92154,-2.944637,2150.00
52.95433,-2.944747,2152.00
52.98712,-2.944938,2154.00
53.02106,-2.944703,2156.00
53.05357,-2.944414,2158.00
53.08659,-2.944264,2160.00
53.12035,-2.944448,2162.00
53.15291,-2.944003,2164.00
53.18626,-2.943537,2166.00
53.21893,-2.943595,2168.00
53.25231,-2.943453,2170.00
53.28495,-2.943782,2172.00
53.31746,-2.944272,2174.00
53.35015,-2.945038,2176.00
53.38358,-2.945146,2178.00
53.41363,-2.945364,2180.00
53.44558,-2.946059,2182.00
53.47862,-2.946925,2184.00
53.51306,-2.947781,2186.00
53.54610,-2.947641,2188.00
53.57976,-2.947703,2190.00
53.61398,-2.947814,2192.00
53.64616,-2.947727,2194.00
53.67964,-2.948077,2196.00
53.71392,-2.947995,2198.00
53.74511,-2.948340,2200.00
53.78220,-2.948538,2202.00
53.81850,-2.949439,2204.00
53.84726,-2.949914,2206.00
53.88172,-2.950428,2208.00
53.91547,-2.949811,2210.00
53.94809,-2.949326,2212.00
53.98149,-2.949740,2214.00
54.01516,-2.949349,2216.00
54.04771,-2.949351,2218.00
54.08121,-2.949175,2220.00
54.11523,-2.949506,2222.00
54.15042,-2.949498,2224.00
54.18036,-2.949635,2226.00
54.21218,-2.949543,2228.00
54.24565,-2.949386,2230.00
54.27772,-2.949683,2232.00
54.31334,-2.949706,2234.00
54.34290,-2.949579,2236.00
54.37792,-2.950143,2238.00
54.41262,-2.950683,2240.00
54.44534,-2.950570,2242.00
54.47708,-2.950398,2244.00
54.51073,-2.950683,2246.00
54.54303,-2.951102,2248.00
54.57600,-2.951717,2250.00
54.60888,-2.952379,2252.00
54.64363,-2.952736,2254.00
54.67745,-2.953088,2256.00
54.71140,-2.953311,2258.00
54.74248,-2.953766,2260.00
54.77601,-2.954379,2262.00
54.80813,-2.955045,2264.00
54.84095,-2.955251,2266.00
54.87643,-2.954743,2268.00
54.90764,-2.954525,2270.00
54.94219,-2.954272,2272.00
54.97677,-2.954061,2274.00
55.01008,-2.954459,2276.00
55.04236,-2.954351,2278.00
55.07653,-2.954726,2280.00
55.10796,-2.955447,2282.00
55.14093,-2.955436,2284.00
55.17451,-2.956054,2286.00
55.20892,-2.956095,2288.00
55.24312,-2.956575,2290.00
55.27660,-2.956664,2292.00
55.30781,-2.957589,2294.00
55.33860,-2.956975,2296.00
55.37421,-2.957291,2298.00
55.40685,-2.957544,2300.00
55.44049,-2.957765,2302.00
55.47296,-2.957886,2304.00
55.50733,-2.958114,2306.00
55.53965,-2.958052,2308.00
55.57289,-2.957857,2310.00
55.60693,-2.958416,2312.00
55.63878,-2.958857,2314.00
55.67324,-2.959607,2316.00
55.70559,-2.959630,2318.00
55.73633,-2.960102,2320.00
55.77201,-2.959782,2322.00
55.80472,-2.960076,2324.00
55.83769,-2.960716,2326.00
55.87300,-2.960630,2328.00
55.90455,-2.960656,2330.00
55.93798,-2.961392,2332.00
55.97230,-2.961859,2334.00
56.00451,-2.961717,2336.00
56.03880,-2.962051,2338.00
56.07093,-2.962361,2340.00
56.10474,-2.961909,2342.00
56.13914,-2.961953,2344.00
56.17365,-2.962653,2346.00
56.20616,-2.962982,2348.00
56.23927,-2.962164,2350.00
56.27234,-2.962109,2352.00
56.30480,-2.962372,2354.00
56.33810,-2.961777,2356.00
56.37006,-2.962410,2358.00
56.40447,-2.963481,2360.00
56.43623,-2.964737,2362.00
56.46902,-2.965292,2364.00
56.50260,-2.965723,2366.00
56.53694,-2.966661,2368.00
56.57056,-2.966853,2370.00
56.60480,-2.966803,2372.00
56.63810,-2.966895,2374.00
56.67462,-2.967426,2376.00
56.70619,-2.967406,2378.00
56.73642,-2.968041,2380.00
56.77340,-2.968461,2382.00
56.80428,-2.968959,2384.00
56.83585,-2.969340,2386.00
56.86880,-2.969969,2388.00
56.90134,-2.969656,2390.00
56.93495,-2.969698,2392.00
56.96978,-2.969527,2394.00
57.00337,-2.969465,2396.00
57.03742,-2.969681,2398.00
57.06991,-2.969901,2400.00
57.10300,-2.969733,2402.00
57.13613,-2.969964,2404.00
57.16845,-2.970229,2406.00
57.20247,-2.970309,2408.00
57.23816,-2.971001,2410.00
57.26924,-2.971554,2412.00
57.30249,-2.972819,2414.00
57.33218,-2.974222,2416.00
57.36297,-2.975094,2418.00
57.39784,-2.975903,2420.00
57.43197,-2.975975,2422.00
57.46368,-2.975802,2424.00
57.49725,-2.975071,2426.00
57.52879,-2.974808,2428.00
57.56172,-2.974984,2430.00
57.59675,-2.974764,2432.00
57.63183,-2.974416,2434.00
57.66292,-2.974389,2436.00
57.69715,-2.975480,2438.00
57.73115,-2.976332,2440.00
57.76289,-2.976974,2442.00
57.79635,-2.977379,2444.00
57.82886,-2.977427,2446.00
57.86332,-2.977868,2448.00
57.89555,-2.978968,2450.00
57.93067,-2.979314,2452.00
57.96337,-2.979848,2454.00
57.99725,-2.980533,2456.00
58.03258,-2.980981,2458.00
58.06633,-2.981483,2460.00
58.09842,-2.981596,2462.00
58.13047,-2.981760,2464.00
58.16215,-2.981633,2466.00
58.19582,-2.982139,2468.00
58.22770,-2.981765,2470.00
58.26051,-2.981323,2472.00
58.29507,-2.981401,2474.00
58.32891,-2.981918,2476.00
58.36070,-2.982470,2478.00
58.39316,-2.983421,2480.00
58.42821,-2.984595,2482.00
58.45976,-2.985363,2484.00
58.49292,-2.985982,2486.00
58.52730,-2.986357,2488.00
58.55970,-2.986380,2490.00
58.59363,-2.986606,2492.00
58.62616,-2.986688,2494.00
58.66259,-2.986689,2496.00
58.69460,-2.986628,2498.00
58.72787,-2.986614,2500.00
58.76138,-2.986202,2502.00
58.79253,-2.986229,2504.00
58.82800,-2.986406,2506.00
58.85849,-2.987680,2508.00
58.89241,-2.988548,2510.00
58.92477,-2.989052,2512.00
58.95643,-2.989630,2514.00
58.99039,-2.990537,2516.00
59.02358,-2.990997,2518.00
59.05768,-2.991596,2520.00
59.08794,-2.991702,2522.00
59.12013,-2.992077,2524.00
59.15506,-2.992272,2526.00
59.18896,-2.991919,2528.00
59.22240,-2.992889,2530.00
59.25479,-2.992959,2532.00
59.28700,-2.992433,2534.00
59.32169,-2.992019,2536.00
59.35467,-2.991987,2538.00
59.38852,-2.992836,2540.00
59.42295,-2.992939,2542.00
59.45564,-2.993650,2544.00
59.48834,-2.994045,2546.00
59.52118,-2.993449,2548.00
59.55744,-2.993543,2550.00
59.59003,-2.994071,2552.00
59.62092,-2.994253,2554.00
59.65286,-2.993927,2556.00
59.68681,-2.993605,2558.00
59.72004,-2.994515,2560.00
59.75177,-2.995349,2562.00
59.78356,-2.995998,2564.00
59.81661,-2.996511,2566.00
59.84998,-2.997118,2568.00
59.88747,-2.997144,2570.00
59.92028,-2.997342,2572.00
59.95316,-2.997985,2574.00
59.98333,-2.999260,2576.00
60.01685,-3.000195,2578.00
60.04929,-3.000077,2580.00
60.08458,-2.999996,2582.00
60.11503,-3.000102,2584.00
60.15035,-2.999926,2586.00
60.18100,-2.999780,2588.00
60.21561,-3.000190,2590.00
60.24945,-3.000339,2592.00
60.28423,-3.000226,2594.00
60.31769,-3.000622,2596.00
60.35231,-3.001131,2598.00
60.38476,-3.001943,2600.00
60.41789,-3.002876,2602.00
60.45038,-3.004011,2604.00
60.48532,-3.005052,2606.00
60.51922,-3.005879,2608.00
60.55152,-3.005714,2610.00
60.58226,-3.005217,2612.00
60.61457,-3.005290,2614.00
60.64975,-3.005135,2616.00
60.68429,-3.005734,2618.00
60.71518,-3.006991,2620.00
60.74822,-3.007995,2622.00
60.78196,-3.008541,2624.00
60.81463,-3.009338,2626.00
60.84704,-3.009000,2628.00
60.88321,-3.008476,2630.00
60.91505,-3.008826,2632.00
60.95143,-3.009256,2634.00
60.98357,-3.009728,2636.00
61.01696,-3.009864,2638.00
61.04939,-3.010233,2640.00
61.08202,-3.010723,2642.00
61.11642,-3.011560,2644.00
61.15066,-3.012120,2646.00
61.18428,-3.012919,2648.00
61.21542,-3.013245,2650.00
61.24878,-3.013717,2652.00
61.27819,-3.013567,2654.00
61.31334,-3.013638,2656.00
61.34761,-3.013635,2658.00
61.37926,-3.012978,2660.00
61.41250,-3.013505,2662.00
61.44597,-3.014200,2664.00
61.47920,-3.015010,2666.00
61.51148,-3.015594,2668.00
61.54366,-3.016075,2670.00
61.57569,-3.016977,2672.00
61.61100,-3.017549,2674.00
61.64397,-3.018197,2676.00
61.67868,-3.018353,2678.00
61.70960,-3.018523,2680.00
61.74440,-3.019002,2682.00
61.77555,-3.019688,2684.00
61.80984,-3.020571,2686.00
61.84112,-3.020989,2688.00
61.87503,-3.021661,2690.00
61.90901,-3.022391,2692.00
61.94329,-3.023436,2694.00
61.97678,-3.024113,2696.00
62.00917,-3.023846,2698.00
62.04117,-3.024357,2700.00
62.07563,-3.025731,2702.00
62.10800,-3.026428,2704.00
62.14168,-3.026512,2706.00
62.17427,-3.027103,2708.00
62.20675,-3.027758,2710.00
62.24235,-3.029366,2712.00
62.27367,-3.030419,2714.00
62.30797,-3.030666,2716.00
62.34143,-3.031338,2718.00
62.37477,-3.031725,2720.00
62.40608,-3.032660,2722.00
62.43932,-3.033178,2724.00
62.47250,-3.033641,2726.00
62.50647,-3.034000,2728.00
62.54010,-3.033646,2730.00
62.57369,-3.034000,2732.00
62.60686,-3.033791,2734.00
62.64221,-3.034563,2736.00
62.67272,-3.035845,2738.00
62.70403,-3.036699,2740.00
62.73859,-3.036759,2742.00
62.77075,-3.037397,2744.00
62.80357,-3.037566,2746.00
62.83838,-3.037930,2748.00
62.87206,-3.038089,2750.00
62.90582,-3.039055,2752.00
62.93851,-3.039234,2754.00
62.97263,-3.040126,2756.00
63.00486,-3.040738,2758.00
63.03917,-3.042123,2760.00
63.07251,-3.043314,2762.00
63.10488,-3.044026,2764.00
63.13970,-3.045160,2766.00
63.17247,-3.045613,2768.00
63.20357,-3.046239,2770.00
63.23669,-3.046147,2772.00
63.27068,-3.046262,2774.00
63.30437,-3.047369,2776.00
63.33734,-3.047660,2778.00
63.36886,-3.048076,2780.00
63.40518,-3.048472,2782.00
63.43582,-3.048655,2784.00
63.46871,-3.048870,2786.00
63.50437,-3.049453,2788.00
63.53531,-3.049783,2790.00
63.57061,-3.050202,2792.00
63.60510,-3.051404,2794.00
63.63573,-3.051719,2796.00
63.66833,-3.052159,2798.00
63.70062,-3.053186,2800.00
63.73574,-3.054073,2802.00
63.76705,-3.054797,2804.00
63.80057,-3.055461,2806.00
63.83690,-3.056311,2808.00
63.86875,-3.057078,2810.00
63.90495,-3.057493,2812.00
63.93849,-3.058009,2814.00
63.96914,-3.058590,2816.00
64.00401,-3.058700,2818.00
64.03817,-3.058453,2820.00
64.07116,-3.058502,2822.00
64.10741,-3.058170,2824.00
64.13747,-3.058531,2826.00
64.17142,-3.059360,2828.00
64.20664,-3.060131,2830.00
64.24007,-3.061450,2832.00
64.27344,-3.062775,2834.00
64.30746,-3.063615,2836.00
64.34102,-3.064251,2838.00
64.37387,-3.064493,2840.00
64.40635,-3.065498,2842.00
64.44014,-3.066002,2844.00
64.47260,-3.067109,2846.00
64.50724,-3.067918,2848.00
64.54006,-3.068691,2850.00
64.57281,-3.069484,2852.00
64.60740,-3.070858,2854.00
64.64005,-3.071401,2856.00
64.67276,-3.071561,2858.00
64.70551,-3.071586,2860.00
64.73815,-3.071641,2862.00
64.77128,-3.071828,2864.00
64.80568,-3.071285,2866.00
64.84020,-3.071561,2868.00
64.87328,-3.072597,2870.00
64.90698,-3.073988,2872.00
64.93820,-3.075422,2874.00
64.97219,-3.076692,2876.00
65.00625,-3.077849,2878.00
65.03792,-3.078675,2880.00
65.07328,-3.078906,2882.00
65.10605,-3.079653,2884.00
65.13774,-3.080472,2886.00
65.16967,-3.080552,2888.00
65.20262,-3.080356,2890.00
65.23649,-3.080963,2892.00
65.26918,-3.081243,2894.00
65.30052,-3.081758,2896.00
65.33606,-3.082387,2898.00
65.36950,-3.083318,2900.00
65.40255,-3.084505,2902.00
65.43513,-3.085529,2904.00
65.46889,-3.086353,2906.00
65.50139,-3.087103,2908.00
65.53422,-3.088393,2910.00
65.56584,-3.089729,2912.00
65.59923,-3.090593,2914.00
65.63168,-3.090479,2916.00
65.66772,-3.090968,2918.00
65.70020,-3.091024,2920.00
65.73246,-3.092149,2922.00
65.76412,-3.093313,2924.00
65.79680,-3.094142,2926.00
65.83107,-3.095147,2928.00
65.86353,-3.096552,2930.00
65.89632,-3.097505,2932.00
65.93030,-3.097865,2934.00
65.96144,-3.098236,2936.00
65.99374,-3.098983,2938.00
66.02680,-3.099674,2940.00
66.06177,-3.100257,2942.00
66.09391,-3.100824,2944.00
66.12714,-3.101628,2946.00
66.16061,-3.102898,2948.00
66.19305,-3.103639,2950.00
66.22619,-3.104874,2952.00
66.26064,-3.105789,2954.00
66.29404,-3.106673,2956.00
66.32813,-3.107431,2958.00
66.36212,-3.108151,2960.00
66.39376,-3.108370,2962.00
66.42774,-3.108346,2964.00
66.45998,-3.108338,2966.00
66.49562,-3.108541,2968.00
66.52603,-3.109615,2970.00
66.56108,-3.110104,2972.00
66.59478,-3.110870,2974.00
66.62950,-3.111791,2976.00
66.66427,-3.113061,2978.00
66.69671,-3.113544,2980.00
66.73018,-3.113658,2982.00
66.76291,-3.114127,2984.00
66.79715,-3.114823,2986.00
66.83142,-3.115349,2988.00
66.86116,-3.116673,2990.00
66.89718,-3.117689,2992.00
66.93123,-3.118301,2994.00
66.96334,-3.119014,2996.00
66.99539,-3.120327,2998.00
67.03111,-3.121375,3000.00
67.06274,-3.123295,3002.00
67.09419,-3.124380,3004.00
67.12590,-3.125333,3006.00
67.16303,-3.126309,3008.00
67.19843,-3.127338,3010.00
67.23155,-3.127382,3012.00
67.26301,-3.128038,3014.00
67.29636,-3.128165,3016.00
67.33024,-3.128412,3018.00
67.36207,-3.129197,3020.00
67.39704,-3.129753,3022.00
67.42620,-3.130278,3024.00
67.46090,-3.131324,3026.00
67.49331,-3.132243,3028.00
67.52385,-3.133013,3030.00
67.55894,-3.132994,3032.00
67.59287,-3.133065,3034.00
67.62437,-3.133674,3036.00
67.65862,-3.134299,3038.00
67.68815,-3.134303,3040.00
67.72299,-3.135196,3042.00
67.75803,-3.136219,3044.00
67.78890,-3.137047,3046.00
67.82005,-3.137955,3048.00
67.85413,-3.139213,3050.00
67.88808,-3.140079,3052.00
67.91985,-3.140397,3054.00
67.95226,-3.140879,3056.00
67.98407,-3.141142,3058.00
68.01593,-3.141636,3060.00
68.05232,-3.142372,3062.00
68.08500,-3.143195,3064.00
68.11830,-3.144396,3066.00
68.15313,-3.145908,3068.00
68.18820,-3.146396,3070.00
68.22027,-3.147222,3072.00
68.25430,-3.147958,3074.00
68.28678,-3.149124,3076.00
68.31836,-3.149585,3078.00
68.35006,-3.151030,3080.00
68.38142,-3.151316,3082.00
68.41618,-3.152374,3084.00
68.45306,-3.153797,3086.00
68.48526,-3.154535,3088.00
68.51876,-3.154584,3090.00
68.54945,-3.155208,3092.00
68.58278,-3.155632,3094.00
68.61400,-3.156198,3096.00
68.64809,-3.157519,3098.00
68.68344,-3.158842,3100.00
68.71495,-3.159514,3102.00
68.74832,-3.160318,3104.00
68.78148,-3.160866,3106.00
68.81419,-3.161450,3108.00
68.84639,-3.162114,3110.00
68.88110,-3.162947,3112.00
68.91235,-3.163324,3114.00
68.94615,-3.163792,3116.00
68.97801,-3.164615,3118.00
69.01268,-3.164662,3120.00
69.04695,-3.165782,3122.00
69.07832,-3.166991,3124.00
69.10947,-3.168246,3126.00
69.14152,-3.169013,3128.00
69.17665,-3.170048,3130.00
69.20877,-3.171592,3132.00
69.24176,-3.172295,3134.00
69.27491,-3.173371,3136.00
69.30850,-3.174396,3138.00
69.34119,-3.175128,3140.00
69.37386,-3.176279,3142.00
69.40664,-3.176473,3144.00
69.44137,-3.177154,3146.00
69.47396,-3.177664,3148.00
69.50721,-3.178015,3150.00
69.54039,-3.178761,3152.00
69.57442,-3.179849,3154.00
69.60785,-3.180894,3156.00
69.63996,-3.182228,3158.00
69.67385,-3.182549,3160.00
69.70899,-3.183844,3162.00
69.74413,-3.184337,3164.00
69.77605,-3.185122,3166.00
69.80978,-3.185962,3168.00
69.84341,-3.186902,3170.00
69.87789,-3.187675,3172.00
69.91075,-3.188963,3174.00
69.94266,-3.189729,3176.00
69.97757,-3.190424,3178.00
70.01020,-3.191453,3180.00
70.04274,-3.191941,3182.00
70.07692,-3.192376,3184.00
70.10803,-3.192435,3186.00
70.14394,-3.192494,3188.00
70.17679,-3.192801,3190.00
70.20959,-3.193297,3192.00
70.24284,-3.193612,3194.00
70.27641,-3.195198,3196.00
70.30950,-3.196650,3198.00
70.34633,-3.197585,3200.00
70.37881,-3.198164,3202.00
70.40811,-3.199608,3204.00
70.44223,-3.200870,3206.00
70.47662,-3.202526,3208.00
70.50824,-3.203090,3210.00
70.54202,-3.204048,3212.00
70.57657,-3.204439,3214.00
70.60877,-3.204836,3216.00
70.64381,-3.205904,3218.00
70.67531,-3.206958,3220.00
70.70986,-3.207713,3222.00
70.74320,-3.208410,3224.00
70.77826,-3.209640,3226.00
70.81077,-3.210465,3228.00
70.84498,-3.211666,3230.00
70.87713,-3.212740,3232.00
70.91093,-3.213743,3234.00
70.94384,-3.214621,3236.00
70.97475,-3.215846,3238.00
71.00822,-3.215462,3240.00
71.04128,-3.216222,3242.00
71.07372,-3.217233,3244.00
71.10910,-3.217831,3246.00
71.14430,-3.218937,3248.00
71.17739,-3.220081,3250.00
71.20936,-3.220160,3252.00
71.24207,-3.221485,3254.00
71.27523,-3.223162,3256.00
71.30896,-3.224914,3258.00
71.34369,-3.225494,3260.00
71.37738,-3.225962,3262.00
71.41225,-3.227637,3264.00
71.44322,-3.228403,3266.00
71.47680,-3.228908,3268.00
71.51007,-3.229038,3270.00
71.54245,-3.229728,3272.00
71.57660,-3.229752,3274.00
71.60793,-3.230018,3276.00
71.64095,-3.230621,3278.00
71.67360,-3.230951,3280.00
71.70839,-3.231892,3282.00
71.74180,-3.231977,3284.00
71.77449,-3.232576,3286.00
71.80850,-3.233653,3288.00
71.84352,-3.234890,3290.00
71.87686,-3.236507,3292.00
71.90715,-3.237670,3294.00
71.93881,-3.238719,3296.00
71.97369,-3.239750,3298.00
72.00890,-3.241215,3300.00
72.04103,-3.242062,3302.00
72.07116,-3.242463,3304.00
72.10568,-3.242774,3306.00
72.13824,-3.243213,3308.00
72.17349,-3.243965,3310.00
72.20648,-3.244061,3312.00
72.23930,-3.244126,3314.00
72.27345,-3.244048,3316.00
72.30445,-3.243822,3318.00
72.33997,-3.244096,3320.00
72.37311,-3.245419,3322.00
72.40306,-3.246049,3324.00
72.43879,-3.246851,3326.00
72.47140,-3.246482,3328.00
72.50440,-3.246914,3330.00
72.53822,-3.247019,3332.00
72.57026,-3.246633,3334.00
72.60447,-3.247186,3336.00
72.63608,-3.247244,3338.00
72.66996,-3.247213,3340.00
72.70198,-3.246817,3342.00
72.73412,-3.245824,3344.00
72.76802,-3.245248,3346.00
72.79981,-3.244165,3348.00
72.83303,-3.244279,3350.00
72.86595,-3.243586,3352.00
72.89901,-3.242645,3354.00
72.93273,-3.239877,3356.00
72.96715,-3.236868,3358.00
73.00106,-3.232600,3360.00
73.03565,-3.227881,3362.00
73.06323,-3.221641,3364.00
73.09501,-3.213603,3366.00
73.13040,-3.203360,3368.00
73.16468,-3.189061,3370.00
73.19637,-3.170618,3372.00
73.22838,-3.144490,3374.00
73.25948,-3.106044,3376.00
73.29639,-3.051790,3378.00
73.32814,-2.975041,3380.00
73.36041,-2.866254,3382.00
73.39615,-2.712150,3384.00
73.42893,-2.487581,3386.00
73.46366,-2.145949,3388.00
73.49787,-1.620049,3390.00
73.52954,-0.850120,3392.00
73.56118,0.156375,3394.00
73.59454,1.210332,3396.00
73.63046,1.777099,3398.00
73.66321,1.597521,3400.00
73.69512,0.925304,3402.00
73.72917,0.118020,3404.00
73.76509,-0.598256,3406.00
73.79658,-1.169576,3408.00
73.82999,-1.615117,3410.00
73.86574,-1.964185,3412.00
73.89870,-2.238646,3414.00
73.93126,-2.455939,3416.00
73.96291,-2.628622,3418.00
73.99578,-2.766309,3420.00
74.02913,-2.875801,3422.00
74.05916,-2.963346,3424.00
74.09671,-3.033956,3426.00
74.13024,-3.090449,3428.00
74.16278,-3.134567,3430.00
74.19593,-3.170093,3432.00
74.22824,-3.198445,3434.00
74.26271,-3.221505,3436.00
74.29573,-3.239392,3438.00
74.32885,-3.253661,3440.00
74.35947,-3.265559,3442.00
74.39465,-3.274545,3444.00
74.42864,-3.281078,3446.00
74.45988,-3.286252,3448.00
74.49332,-3.290360,3450.00
74.52697,-3.293579,3452.00
74.56004,-3.295978,3454.00
74.59422,-3.297561,3456.00
74.62611,-3.297791,3458.00
74.65966,-3.297773,3460.00
74.69455,-3.296740,3462.00
74.72628,-3.295205,3464.00
74.75834,-3.293516,3466.00
74.79301,-3.291657,3468.00
74.82796,-3.288688,3470.00
74.85684,-3.285884,3472.00
74.89290,-3.282915,3474.00
74.92539,-3.277970,3476.00
74.95871,-3.271974,3478.00
74.99091,-3.264407,3480.00
75.02610,-3.255520,3482.00
75.05940,-3.245449,3484.00
75.09180,-3.234301,3486.00
75.12612,-3.221325,3488.00
75.16013,-3.206724,3490.00
75.19307,-3.188769,3492.00
75.22736,-3.168006,3494.00
75.25744,-3.142619,3496.00
75.29115,-3.113015,3498.00
75.32508,-3.077242,3500.00
75.36016,-3.032763,3502.00
75.39496,-2.976935,3504.00
75.42813,-2.907436,3506.00
75.46079,-2.818129,3508.00
75.49270,-2.701141,3510.00
75.52609,-2.544919,3512.00
75.55891,-2.330241,3514.00
75.59078,-2.026913,3516.00
75.62280,-1.585294,3518.00
75.65713,-0.929200,3520.00
75.68891,0.059371,3522.00
75.72217,1.530791,3524.00
75.75347,3.627119,3526.00
75.78397,6.380451,3528.00
75.81766,9.363419,3530.00
75.85051,11.258921,3532.00
75.88413,10.679122,3534.00
75.91872,8.457638,3536.00
75.95234,5.921995,3538.00
75.98654,3.875946,3540.00
76.01994,2.329842,3542.00
76.05171,1.143984,3544.00
76.08434,0.218863,3546.00
76.11849,-0.512363,3548.00
76.15056,-1.101214,3550.00
76.18255,-1.577866,3552.00
76.21687,-1.963940,3554.00
76.25049,-2.274393,3556.00
76.28426,-2.524205,3558.00
76.31559,-2.724206,3560.00
76.34807,-2.884566,3562.00
76.38170,-3.012882,3564.00
76.41542,-3.115646,3566.00
76.45126,-3.198168,3568.00
76.48318,-3.264956,3570.00
76.51463,-3.317849,3572.00
76.54677,-3.360005,3574.00
76.58099,-3.394042,3576.00
76.61640,-3.421855,3578.00
76.65175,-3.445094,3580.00
76.68249,-3.463411,3582.00
76.71552,-3.478999,3584.00
76.74927,-3.491393,3586.00
76.78346,-3.501632,3588.00
76.81641,-3.510572,3590.00
76.85085,-3.517997,3592.00
76.88544,-3.524098,3594.00
76.91632,-3.529652,3596.00
76.94925,-3.534119,3598.00
76.98256,-3.537657,3600.00
77.01495,-3.541153,3602.00
77.04782,-3.543931,3604.00
77.07950,-3.546462,3606.00
77.11476,-3.549420,3608.00
77.14595,-3.551757,3610.00
77.17945,-3.554485,3612.00
77.21541,-3.557085,3614.00
77.24772,-3.559449,3616.00
77.27923,-3.562181,3618.00
77.31298,-3.564627,3620.00
77.34694,-3.567406,3622.00
77.38061,-3.569845,3624.00
77.41265,-3.572432,3626.00
77.44665,-3.575596,3628.00
77.48053,-3.578722,3630.00
77.51146,-3.580979,3632.00
77.54580,-3.582821,3634.00
77.57924,-3.585070,3636.00
77.61303,-3.586980,3638.00
77.64461,-3.588700,3640.00
77.67712,-3.590388,3642.00
77.71072,-3.593536,3644.00
77.74490,-3.595901,3646.00
77.77775,-3.598421,3648.00
77.81056,-3.601348,3650.00
77.84640,-3.603376,3652.00
77.87819,-3.605050,3654.00
77.90972,-3.606749,3656.00
77.94412,-3.608901,3658.00
77.98006,-3.610562,3660.00
78.01119,-3.612561,3662.00
78.04380,-3.614477,3664.00
78.07865,-3.615901,3666.00
78.11280,-3.616736,3668.00
78.14611,-3.617913,3670.00
78.18016,-3.620075,3672.00
78.21192,-3.622922,3674.00
78.24487,-3.624838,3676.00
78.27663,-3.624713,3678.00
78.30980,-3.625203,3680.00
78.34086,-3.627418,3682.00
78.37381,-3.631283,3684.00
78.40602,-3.635786,3686.00
78.44057,-3.640051,3688.00
78.47347,-3.643492,3690.00
78.50707,-3.646410,3692.00
78.53860,-3.649775,3694.00
78.57332,-3.653165,3696.00
78.60861,-3.656562,3698.00
78.64184,-3.659423,3700.00
78.67610,-3.662638,3702.00
78.70914,-3.666275,3704.00
78.73889,-3.669752,3706.00
78.77307,-3.672976,3708.00
78.80498,-3.675896,3710.00
78.83747,-3.678653,3712.00
78.87082,-3.681004,3714.00
78.90607,-3.683343,3716.00
78.93828,-3.685386,3718.00
78.97231,-3.687464,3720.00
79.00678,-3.690153,3722.00
79.03968,-3.692444,3724.00
79.07405,-3.694994,3726.00
79.10686,-3.698289,3728.00
79.14224,-3.700829,3730.00
79.17441,-3.702916,3732.00
79.20653,-3.705502,3734.00
79.23778,-3.708730,3736.00
79.27221,-3.711649,3738.00
79.30715,-3.715310,3740.00
79.34059,-3.718570,3742.00
79.37395,-3.722138,3744.00
79.40745,-3.725518,3746.00
79.44275,-3.728697,3748.00
79.47250,-3.731140,3750.00
79.50724,-3.733966,3752.00
79.54376,-3.736810,3754.00
79.57867,-3.738880,3756.00
79.60989,-3.741974,3758.00
79.64359,-3.744217,3760.00
79.67429,-3.747185,3762.00
79.70653,-3.749937,3764.00
79.74124,-3.752477,3766.00
79.77258,-3.754620,3768.00
79.80715,-3.757864,3770.00
79.83833,-3.761057,3772.00
79.87424,-3.764006,3774.00
79.90971,-3.766947,3776.00
79.94393,-3.769778,3778.00
79.97729,-3.773333,3780.00

