$DSC2
$Conventional
$Adiabatic Mode
$Scanrate Corrected-Programmed
$Baseline Subtraction Method: 0 File: NONE
$DP Corrected
$RTD Corrected
$MidGain FB,  0.75 
$ADCGainCode:  0 
$ 10 
$NOT
$ 10 
$ 0            20            25           False
$ 0 
$ 15           80            60            5             0             2             2             0 
$ 15           80            60            5             0             2             2             0 
$ 15           80            60            5             0             2             2             0 
$ 15           80            60            5             0             2             2             0 
$ 15           80            60            5             0             2             2             0 
$ 15           80            60            5             0             2             2             0 
$ 15           80            60            5             0             2             2             0 
$ 15           80            60            5             0             2             2             0 
$ 15           80            60            5             0             2             2             0 
$ 15           80            60            5             0             2             2             0 
# 0 
# 0.5197
# 0
# 11.63 
# 0.75 
# 10.743 
? 
% VPDSC02.06.462
% 0.51971 
% 11.63 
%-0.995356 , 100.17434 
% 3.676 
% 250 ,       -22.5 
% 1000.3 , 1000.3 
% 0.88219 ,-0.02026 
%-0.08266 , 0.02515 
% 1 , 0.055 
% 0.0522 
% 1 , 130 
% 0.080433 , 0.056504 
% 0 , 8 
% 0 , 18 
% 0.072589046661 ,-0.003235099108 , 8.240903228419E-06 , 2.357972384211E-07 ,-7.440723641986E-10 
% VPViewer2000 Ver: 1.4.14
@10
17.40349,-3.220851,2.00
17.44039,-3.221037,4.00
17.47186,-3.221069,6.00
17.50439,-3.220470,8.00
17.53627,-3.220615,10.00
17.56817,-3.220529,12.00
17.60145,-3.220270,14.00
17.63274,-3.220022,16.00
17.66571,-3.220107,18.00
17.69497,-3.220203,20.00
17.72906,-3.220305,22.00
17.76170,-3.219846,24.00
17.79530,-3.219373,26.00
17.82759,-3.219639,28.00
17.85830,-3.219672,30.00
17.89067,-3.219855,32.00
17.92296,-3.219699,34.00
17.95837,-3.219925,36.00
17.99123,-3.219393,38.00
18.02332,-3.218897,40.00
18.05757,-3.218356,42.00
18.08854,-3.218402,44.00
18.12254,-3.218597,46.00
18.15375,-3.218198,48.00
18.18449,-3.217792,50.00
18.21949,-3.218111,52.00
18.25409,-3.218611,54.00
18.28237,-3.219079,56.00
18.31280,-3.219027,58.00
18.34247,-3.218778,60.00
18.37227,-3.218024,62.00
18.40686,-3.217473,64.00
18.44088,-3.217775,66.00
18.47437,-3.218302,68.00
18.50890,-3.218460,70.00
18.54387,-3.217965,72.00
18.57567,-3.217570,74.00
18.60735,-3.217411,76.00
18.64192,-3.217479,78.00
18.67355,-3.217192,80.00
18.70427,-3.217687,82.00
18.73869,-3.218049,84.00
18.77292,-3.217752,86.00
18.80337,-3.216697,88.00
18.83549,-3.216037,90.00
18.86835,-3.216177,92.00
18.90176,-3.215851,94.00
18.93610,-3.215719,96.00
18.96879,-3.215914,98.00
19.00153,-3.215733,100.00
19.03574,-3.216026,102.00
19.06905,-3.215161,104.00
19.10244,-3.214557,106.00
19.13332,-3.214761,108.00
19.16756,-3.215084,110.00
19.20021,-3.215112,112.00
19.23381,-3.215663,114.00
19.26772,-3.215597,116.00
19.29963,-3.215587,118.00
19.33200,-3.214797,120.00
19.36540,-3.214612,122.00
19.39912,-3.214752,124.00
19.43279,-3.214589,126.00
19.46501,-3.214827,128.00
19.49613,-3.214945,130.00
19.52678,-3.214954,132.00
19.56118,-3.214468,134.00
19.59254,-3.213723,136.00
19.62326,-3.214007,138.00
19.65809,-3.213885,140.00
19.68983,-3.214818,142.00
19.72252,-3.214778,144.00
19.75744,-3.214536,146.00
19.78777,-3.214062,148.00
19.82149,-3.214281,150.00
19.85456,-3.213757,152.00
19.89017,-3.213021,154.00
19.92354,-3.213059,156.00
19.95502,-3.212516,158.00
19.98479,-3.212923,160.00
20.01634,-3.213671,162.00
20.04990,-3.214011,164.00
20.08184,-3.213578,166.00
20.11582,-3.213273,168.00
20.14833,-3.212854,170.00
20.18162,-3.212364,172.00
20.21548,-3.212297,174.00
20.25014,-3.212276,176.00
20.28334,-3.212442,178.00
20.31707,-3.212772,180.00
20.34871,-3.213367,182.00
20.38208,-3.212793,184.00
20.41542,-3.212503,186.00
20.44929,-3.212040,188.00
20.48183,-3.212293,190.00
20.51392,-3.212802,192.00
20.55270,-3.212923,194.00
20.58584,-3.212471,196.00
20.62055,-3.212667,198.00
20.65111,-3.212181,200.00
20.68525,-3.212172,202.00
20.71598,-3.211641,204.00
20.74823,-3.211047,206.00
20.77983,-3.211042,208.00
20.81392,-3.211272,210.00
20.84688,-3.211333,212.00
20.88047,-3.211492,214.00
20.91133,-3.212122,216.00
20.94361,-3.211916,218.00
20.97420,-3.212054,220.00
21.00665,-3.211739,222.00
21.03967,-3.211088,224.00
21.07207,-3.210638,226.00
21.10409,-3.210421,228.00
21.13982,-3.210433,230.00
21.17198,-3.210455,232.00
21.20291,-3.210333,234.00
21.23691,-3.210359,236.00
21.26915,-3.209752,238.00
21.30276,-3.209294,240.00
21.33667,-3.209141,242.00
21.36773,-3.209190,244.00
21.40056,-3.209687,246.00
21.43415,-3.210085,248.00
21.46531,-3.209697,250.00
21.50093,-3.209865,252.00
21.53329,-3.210292,254.00
21.56708,-3.210151,256.00
21.59758,-3.209911,258.00
21.62946,-3.210237,260.00
21.66351,-3.210333,262.00
21.69695,-3.209970,264.00
21.72785,-3.209788,266.00
21.76135,-3.208996,268.00
21.79421,-3.208681,270.00
21.82825,-3.208921,272.00
21.86000,-3.208472,274.00
21.89403,-3.208811,276.00
21.92434,-3.209596,278.00
21.95705,-3.209535,280.00
21.99266,-3.209221,282.00
22.02441,-3.208666,284.00
22.05900,-3.208386,286.00
22.09217,-3.208247,288.00
22.12539,-3.208271,290.00
22.15515,-3.209074,292.00
22.18888,-3.209199,294.00
22.21838,-3.209316,296.00
22.24975,-3.209271,298.00
22.28580,-3.209271,300.00
22.31857,-3.209299,302.00
22.35161,-3.208925,304.00
22.38539,-3.208732,306.00
22.42056,-3.209328,308.00
22.44911,-3.209698,310.00
22.48354,-3.209602,312.00
22.51478,-3.209374,314.00
22.54776,-3.208893,316.00
22.58139,-3.208676,318.00
22.61514,-3.208803,320.00
22.64953,-3.208859,322.00
22.68078,-3.209169,324.00
22.71324,-3.209195,326.00
22.74821,-3.209161,328.00
22.77709,-3.208734,330.00
22.81358,-3.208094,332.00
22.84587,-3.208213,334.00
22.88060,-3.208230,336.00
22.91430,-3.208722,338.00
22.94564,-3.208684,340.00
22.98010,-3.208498,342.00
23.01167,-3.207934,344.00
23.04578,-3.208170,346.00
23.07849,-3.208297,348.00
23.11243,-3.208098,350.00
23.14664,-3.207821,352.00
23.17884,-3.207974,354.00
23.21188,-3.207874,356.00
23.24650,-3.208459,358.00
23.27797,-3.209009,360.00
23.31164,-3.208686,362.00
23.34584,-3.208013,364.00
23.37812,-3.208088,366.00
23.41235,-3.208242,368.00
23.44356,-3.208215,370.00
23.47746,-3.208407,372.00
23.51130,-3.208524,374.00
23.54362,-3.208393,376.00
23.57591,-3.208572,378.00
23.60889,-3.207963,380.00
23.64115,-3.208102,382.00
23.67348,-3.208063,384.00
23.70415,-3.208292,386.00
23.73686,-3.208270,388.00
23.77002,-3.208301,390.00
23.80277,-3.208096,392.00
23.83593,-3.207769,394.00
23.87159,-3.207689,396.00
23.90573,-3.207466,398.00
23.93648,-3.208317,400.00
23.96903,-3.208792,402.00
24.00350,-3.208829,404.00
24.03840,-3.208627,406.00
24.07270,-3.208600,408.00
24.10259,-3.208317,410.00
24.13733,-3.208769,412.00
24.17124,-3.208340,414.00
24.20300,-3.208295,416.00
24.23605,-3.208578,418.00
24.26925,-3.209006,420.00
24.30320,-3.209378,422.00
24.33510,-3.209176,424.00
24.36956,-3.208920,426.00
24.40187,-3.209024,428.00
24.43466,-3.209089,430.00
24.46905,-3.209288,432.00
24.50338,-3.209626,434.00
24.53417,-3.209812,436.00
24.56886,-3.209523,438.00
24.60036,-3.209301,440.00
24.63514,-3.209497,442.00
24.66914,-3.208929,444.00
24.70070,-3.208719,446.00
24.73389,-3.208496,448.00
24.76589,-3.208328,450.00
24.80050,-3.209103,452.00
24.83436,-3.209732,454.00
24.86722,-3.209665,456.00
24.90164,-3.208890,458.00
24.93419,-3.209475,460.00
24.96691,-3.210154,462.00
25.00083,-3.210430,464.00
25.03419,-3.210816,466.00
25.06623,-3.210813,468.00
25.09991,-3.210243,470.00
25.13438,-3.210533,472.00
25.16517,-3.210840,474.00
25.19819,-3.210899,476.00
25.23231,-3.210870,478.00
25.26277,-3.211454,480.00
25.29742,-3.211392,482.00
25.33114,-3.211902,484.00
25.36493,-3.212164,486.00
25.39783,-3.212487,488.00
25.43080,-3.213076,490.00
25.46323,-3.213708,492.00
25.49700,-3.213266,494.00
25.52863,-3.213018,496.00
25.56174,-3.212502,498.00
25.59366,-3.212465,500.00
25.62758,-3.212690,502.00
25.65967,-3.213935,504.00
25.69254,-3.213861,506.00
25.72616,-3.214522,508.00
25.75756,-3.215023,510.00
25.79095,-3.214514,512.00
25.82751,-3.215376,514.00
25.86024,-3.216078,516.00
25.89184,-3.217024,518.00
25.92874,-3.217510,520.00
25.96160,-3.218065,522.00
25.99405,-3.218876,524.00
26.02624,-3.218980,526.00
26.06012,-3.219907,528.00
26.08900,-3.220398,530.00
26.12103,-3.220696,532.00
26.15724,-3.221439,534.00
26.18864,-3.222259,536.00
26.22122,-3.223033,538.00
26.25770,-3.224569,540.00
26.28991,-3.225483,542.00
26.32336,-3.225953,544.00
26.35897,-3.226610,546.00
26.38960,-3.227334,548.00
26.42093,-3.228142,550.00
26.45618,-3.228973,552.00
26.48851,-3.230385,554.00
26.52366,-3.231489,556.00
26.55509,-3.233057,558.00
26.58840,-3.234607,560.00
26.61845,-3.236167,562.00
26.65024,-3.237732,564.00
26.68586,-3.238830,566.00
26.71737,-3.239959,568.00
26.74941,-3.242059,570.00
26.78340,-3.243704,572.00
26.81687,-3.245271,574.00
26.84955,-3.247771,576.00
26.88544,-3.250616,578.00
26.91849,-3.253289,580.00
26.95055,-3.255725,582.00
26.98489,-3.258158,584.00
27.01849,-3.260731,586.00
27.05215,-3.263829,588.00
27.08305,-3.268180,590.00
27.11674,-3.272370,592.00
27.15327,-3.277204,594.00
27.18795,-3.282556,596.00
27.21873,-3.288331,598.00
27.25035,-3.294753,600.00
27.28398,-3.301807,602.00
27.31683,-3.309460,604.00
27.34980,-3.318518,606.00
27.38170,-3.329575,608.00
27.41493,-3.342044,610.00
27.44779,-3.355929,612.00
27.47884,-3.372142,614.00
27.51364,-3.390487,616.00
27.54614,-3.412112,618.00
27.57721,-3.438999,620.00
27.61055,-3.471705,622.00
27.64511,-3.512165,624.00
27.67809,-3.562749,626.00
27.71075,-3.626064,628.00
27.74328,-3.706924,630.00
27.77478,-3.812608,632.00
27.81163,-3.952842,634.00
27.84399,-4.137724,636.00
27.87888,-4.375822,638.00
27.91037,-4.655742,640.00
27.94342,-4.959941,642.00
27.97969,-5.301218,644.00
28.01153,-5.656564,646.00
28.04353,-5.996829,648.00
28.07894,-6.333116,650.00
28.11100,-6.686577,652.00
28.14318,-6.909321,654.00
28.17533,-6.793030,656.00
28.21041,-6.361129,658.00
28.24495,-5.836702,660.00
28.27519,-5.366214,662.00
28.30841,-4.973814,664.00
28.34033,-4.652081,666.00
28.37557,-4.388875,668.00
28.40958,-4.172187,670.00
28.44056,-3.995105,672.00
28.47329,-3.849352,674.00
28.50819,-3.729984,676.00
28.54108,-3.632534,678.00
28.57300,-3.553148,680.00
28.60648,-3.487437,682.00
28.63769,-3.433695,684.00
28.67381,-3.389865,686.00
28.70903,-3.353157,688.00
28.73980,-3.323213,690.00
28.77324,-3.298975,692.00
28.80633,-3.278741,694.00
28.83753,-3.262680,696.00
28.87266,-3.249716,698.00
28.90548,-3.238936,700.00
28.93861,-3.230398,702.00
28.97056,-3.223228,704.00
29.00367,-3.216682,706.00
29.03769,-3.211346,708.00
29.07087,-3.206899,710.00
29.10409,-3.204020,712.00
29.13856,-3.202058,714.00
29.16957,-3.200761,716.00
29.20264,-3.200347,718.00
29.23545,-3.201122,720.00
29.26710,-3.202642,722.00
29.30220,-3.203980,724.00
29.33483,-3.205391,726.00
29.36785,-3.207544,728.00
29.40084,-3.208640,730.00
29.43466,-3.208108,732.00
29.46736,-3.206198,734.00
29.49765,-3.204003,736.00
29.53173,-3.202184,738.00
29.56661,-3.200308,740.00
29.59944,-3.198145,742.00
29.63214,-3.195912,744.00
29.66574,-3.194439,746.00
29.69981,-3.193313,748.00
29.73381,-3.192705,750.00
29.76727,-3.192377,752.00
29.80050,-3.192707,754.00
29.83356,-3.191989,756.00
29.86413,-3.191457,758.00
29.89803,-3.191110,760.00
29.92979,-3.190956,762.00
29.96247,-3.190574,764.00
29.99192,-3.189891,766.00
30.02248,-3.189195,768.00
30.05809,-3.188685,770.00
30.09136,-3.188600,772.00
30.12298,-3.188883,774.00
30.15495,-3.188884,776.00
30.18760,-3.188645,778.00
30.22229,-3.188672,780.00
30.25633,-3.188804,782.00
30.28557,-3.189023,784.00
30.31894,-3.188535,786.00
30.35355,-3.187796,788.00
30.38697,-3.187899,790.00
30.42088,-3.187745,792.00
30.45329,-3.187454,794.00
30.48456,-3.188224,796.00
30.51698,-3.188315,798.00
30.55314,-3.188608,800.00
30.58634,-3.188069,802.00
30.61789,-3.187071,804.00
30.64986,-3.186593,806.00
30.68252,-3.186958,808.00
30.71625,-3.187838,810.00
30.75241,-3.187995,812.00
30.78332,-3.188096,814.00
30.81619,-3.187771,816.00
30.85036,-3.187717,818.00
30.88548,-3.187759,820.00
30.91610,-3.187473,822.00
30.95246,-3.187448,824.00
30.98431,-3.187198,826.00
31.01569,-3.187209,828.00
31.04808,-3.187745,830.00
31.08203,-3.188502,832.00
31.11466,-3.188440,834.00
31.14827,-3.187870,836.00
31.18260,-3.187605,838.00
31.22022,-3.187063,840.00
31.25601,-3.186936,842.00
31.28827,-3.186897,844.00
31.32219,-3.186812,846.00
31.35617,-3.187167,848.00
31.38718,-3.187011,850.00
31.41879,-3.187725,852.00
31.45019,-3.187681,854.00
31.48465,-3.187568,856.00
31.51686,-3.187177,858.00
31.54766,-3.186623,860.00
31.58248,-3.186010,862.00
31.61649,-3.185838,864.00
31.65025,-3.185883,866.00
31.68370,-3.186093,868.00
31.71515,-3.187097,870.00
31.74754,-3.187587,872.00
31.77910,-3.187478,874.00
31.81441,-3.187426,876.00
31.84588,-3.187290,878.00
31.88074,-3.186868,880.00
31.91464,-3.186419,882.00
31.94855,-3.186498,884.00
31.98283,-3.186833,886.00
32.01276,-3.187409,888.00
32.04668,-3.187458,890.00
32.08158,-3.187916,892.00
32.11566,-3.187715,894.00
32.14590,-3.187181,896.00
32.17834,-3.186449,898.00
32.21066,-3.186325,900.00
32.24402,-3.186691,902.00
32.27756,-3.186685,904.00
32.31043,-3.186845,906.00
32.34524,-3.187303,908.00
32.37997,-3.186655,910.00
32.41123,-3.186425,912.00
32.44227,-3.185968,914.00
32.47412,-3.185649,916.00
32.50919,-3.185489,918.00
32.54223,-3.185262,920.00
32.57442,-3.185680,922.00
32.60729,-3.186084,924.00
32.63885,-3.186779,926.00
32.67406,-3.187041,928.00
32.70688,-3.187319,930.00
32.73852,-3.186801,932.00
32.77492,-3.186401,934.00
32.80795,-3.186280,936.00
32.84141,-3.186189,938.00
32.87309,-3.186883,940.00
32.90892,-3.186961,942.00
32.94447,-3.186897,944.00
32.97599,-3.187239,946.00
33.00679,-3.187709,948.00
33.04095,-3.187711,950.00
33.07398,-3.187142,952.00
33.10840,-3.186849,954.00
33.14256,-3.186411,956.00
33.17627,-3.185578,958.00
33.20582,-3.185437,960.00
33.24141,-3.185714,962.00
33.27386,-3.185971,964.00
33.30681,-3.186465,966.00
33.34129,-3.186648,968.00
33.37366,-3.186587,970.00
33.40618,-3.186342,972.00
33.44117,-3.186513,974.00
33.47316,-3.186620,976.00
33.50623,-3.186490,978.00
33.54051,-3.186185,980.00
33.57246,-3.185982,982.00
33.60617,-3.185975,984.00
33.64213,-3.185700,986.00
33.67265,-3.186050,988.00
33.70668,-3.186620,990.00
33.73877,-3.187079,992.00
33.77118,-3.186567,994.00
33.80533,-3.186437,996.00
33.83860,-3.186120,998.00
33.86981,-3.185469,1000.00
33.90165,-3.185325,1002.00
33.93166,-3.185717,1004.00
33.96658,-3.186205,1006.00
33.99832,-3.186200,1008.00
34.03210,-3.186166,1010.00
34.06478,-3.186546,1012.00
34.09871,-3.186160,1014.00
34.13323,-3.186004,1016.00
34.16721,-3.185537,1018.00
34.20323,-3.185446,1020.00
34.23673,-3.184994,1022.00
34.26726,-3.185480,1024.00
34.30185,-3.185683,1026.00
34.33553,-3.185916,1028.00
34.36646,-3.186365,1030.00
34.39939,-3.186253,1032.00
34.43161,-3.185926,1034.00
34.46387,-3.185614,1036.00
34.49831,-3.185051,1038.00
34.53071,-3.185243,1040.00
34.56223,-3.185610,1042.00
34.59554,-3.186023,1044.00
34.62772,-3.186436,1046.00
34.65975,-3.186799,1048.00
34.69306,-3.186419,1050.00
34.72775,-3.186219,1052.00
34.75905,-3.185842,1054.00
34.79258,-3.185898,1056.00
34.82654,-3.185531,1058.00
34.86214,-3.185347,1060.00
34.89573,-3.185819,1062.00
34.92885,-3.186766,1064.00
34.95929,-3.187114,1066.00
34.99302,-3.187217,1068.00
35.02828,-3.187707,1070.00
35.06039,-3.188261,1072.00
35.09470,-3.187917,1074.00
35.12764,-3.187773,1076.00
35.16046,-3.187506,1078.00
35.19308,-3.187379,1080.00
35.22540,-3.186827,1082.00
35.25795,-3.186668,1084.00
35.29090,-3.186846,1086.00
35.32655,-3.186650,1088.00
35.35735,-3.187019,1090.00
35.39048,-3.187500,1092.00
35.42276,-3.187842,1094.00
35.45681,-3.187548,1096.00
35.49145,-3.187047,1098.00
35.52246,-3.186689,1100.00
35.55622,-3.186031,1102.00
35.58991,-3.186043,1104.00
35.62475,-3.186213,1106.00
35.65813,-3.186969,1108.00
35.69302,-3.187044,1110.00
35.72618,-3.187117,1112.00
35.75755,-3.187314,1114.00
35.79137,-3.187444,1116.00
35.82334,-3.187309,1118.00
35.85948,-3.187359,1120.00
35.89326,-3.187162,1122.00
35.92489,-3.187441,1124.00
35.95805,-3.187655,1126.00
35.99203,-3.187547,1128.00
36.02266,-3.187385,1130.00
36.05779,-3.187130,1132.00
36.08917,-3.187271,1134.00
36.12297,-3.187243,1136.00
36.15393,-3.187310,1138.00
36.19003,-3.187435,1140.00
36.22279,-3.187593,1142.00
36.25627,-3.188346,1144.00
36.29030,-3.188469,1146.00
36.32276,-3.188238,1148.00
36.35495,-3.188089,1150.00
36.38881,-3.187240,1152.00
36.42233,-3.188221,1154.00
36.45887,-3.187590,1156.00
36.49081,-3.187358,1158.00
36.52382,-3.187900,1160.00
36.55447,-3.188263,1162.00
36.58837,-3.188924,1164.00
36.62209,-3.188943,1166.00
36.65539,-3.188860,1168.00
36.68782,-3.189141,1170.00
36.71987,-3.188996,1172.00
36.75310,-3.189215,1174.00
36.78813,-3.189185,1176.00
36.82239,-3.188327,1178.00
36.85466,-3.188161,1180.00
36.88587,-3.187943,1182.00
36.91906,-3.187395,1184.00
36.95123,-3.187594,1186.00
36.98604,-3.188330,1188.00
37.02234,-3.189218,1190.00
37.05391,-3.189040,1192.00
37.09060,-3.189474,1194.00
37.12329,-3.189878,1196.00
37.15311,-3.189832,1198.00
37.18832,-3.189705,1200.00
37.22315,-3.189386,1202.00
37.25674,-3.188715,1204.00
37.28859,-3.188449,1206.00
37.32052,-3.188300,1208.00
37.35406,-3.188492,1210.00
37.38636,-3.189360,1212.00
37.42041,-3.189706,1214.00
37.45527,-3.189456,1216.00
37.48617,-3.189550,1218.00
37.51762,-3.188747,1220.00
37.54952,-3.189016,1222.00
37.58125,-3.188614,1224.00
37.61205,-3.188912,1226.00
37.64650,-3.188863,1228.00
37.68064,-3.189095,1230.00
37.71279,-3.189498,1232.00
37.74627,-3.189720,1234.00
37.77635,-3.188779,1236.00
37.80750,-3.188501,1238.00
37.84084,-3.188335,1240.00
37.87550,-3.188620,1242.00
37.90636,-3.188787,1244.00
37.93881,-3.188995,1246.00
37.97637,-3.189036,1248.00
38.01067,-3.189439,1250.00
38.04255,-3.189116,1252.00
38.07645,-3.188710,1254.00
38.10847,-3.188762,1256.00
38.14196,-3.188991,1258.00
38.17634,-3.189717,1260.00
38.20849,-3.189962,1262.00
38.24180,-3.190046,1264.00
38.27534,-3.190224,1266.00
38.30879,-3.190765,1268.00
38.34346,-3.190650,1270.00
38.37470,-3.190695,1272.00
38.40757,-3.191261,1274.00
38.44023,-3.191429,1276.00
38.47233,-3.191452,1278.00
38.50488,-3.191100,1280.00
38.53919,-3.190452,1282.00
38.57193,-3.190377,1284.00
38.60601,-3.190006,1286.00
38.64040,-3.189630,1288.00
38.67575,-3.189942,1290.00
38.70837,-3.190321,1292.00
38.74057,-3.191056,1294.00
38.77529,-3.191426,1296.00
38.81019,-3.191525,1298.00
38.84552,-3.191325,1300.00
38.87841,-3.191067,1302.00
38.91070,-3.190837,1304.00
38.94428,-3.190640,1306.00
38.97617,-3.190293,1308.00
39.00874,-3.190537,1310.00
39.04301,-3.191100,1312.00
39.07622,-3.191604,1314.00
39.10877,-3.192270,1316.00
39.14290,-3.192585,1318.00
39.17588,-3.192633,1320.00
39.21048,-3.192574,1322.00
39.24310,-3.191998,1324.00
39.27901,-3.191794,1326.00
39.31066,-3.191727,1328.00
39.34348,-3.192325,1330.00
39.37542,-3.192412,1332.00
39.40808,-3.193185,1334.00
39.44314,-3.193018,1336.00
39.47700,-3.193684,1338.00
39.51183,-3.193064,1340.00
39.54377,-3.192643,1342.00
39.57556,-3.192451,1344.00
39.60969,-3.191957,1346.00
39.64608,-3.192334,1348.00
39.68041,-3.192936,1350.00
39.71160,-3.193453,1352.00
39.74536,-3.193622,1354.00
39.78030,-3.193531,1356.00
39.81186,-3.193758,1358.00
39.84374,-3.193747,1360.00
39.87642,-3.193453,1362.00
39.91082,-3.193403,1364.00
39.94353,-3.193245,1366.00
39.97825,-3.192835,1368.00
40.01491,-3.193028,1370.00
40.04783,-3.193632,1372.00
40.07969,-3.194376,1374.00
40.11530,-3.194643,1376.00
40.14863,-3.195101,1378.00
40.17886,-3.195341,1380.00
40.21343,-3.194986,1382.00
40.24857,-3.194651,1384.00
40.28076,-3.194680,1386.00
40.31505,-3.194551,1388.00
40.34560,-3.194305,1390.00
40.37918,-3.194754,1392.00
40.41060,-3.195420,1394.00
40.44228,-3.195429,1396.00
40.47456,-3.195128,1398.00
40.50626,-3.195089,1400.00
40.54021,-3.195194,1402.00
40.57208,-3.195071,1404.00
40.60613,-3.194895,1406.00
40.64196,-3.194745,1408.00
40.67552,-3.194649,1410.00
40.70812,-3.194588,1412.00
40.74308,-3.195114,1414.00
40.77899,-3.195246,1416.00
40.81267,-3.194968,1418.00
40.84588,-3.194910,1420.00
40.87748,-3.194909,1422.00
40.91181,-3.195350,1424.00
40.94692,-3.196004,1426.00
40.98061,-3.195874,1428.00
41.01167,-3.196542,1430.00
41.04424,-3.196734,1432.00
41.07886,-3.196576,1434.00
41.11140,-3.196405,1436.00
41.14255,-3.196533,1438.00
41.17551,-3.196009,1440.00
41.20832,-3.195999,1442.00
41.24071,-3.196776,1444.00
41.27240,-3.197172,1446.00
41.30360,-3.197425,1448.00
41.33872,-3.197344,1450.00
41.37307,-3.197283,1452.00
41.40696,-3.196890,1454.00
41.44083,-3.196329,1456.00
41.47159,-3.196681,1458.00
41.50474,-3.196822,1460.00
41.53965,-3.196809,1462.00
41.57374,-3.196996,1464.00
41.60581,-3.197171,1466.00
41.63916,-3.197634,1468.00
41.67164,-3.198176,1470.00
41.70412,-3.198438,1472.00
41.73913,-3.198183,1474.00
41.77199,-3.199091,1476.00
41.80371,-3.199276,1478.00
41.83866,-3.199157,1480.00
41.87251,-3.198804,1482.00
41.90348,-3.199223,1484.00
41.93464,-3.199418,1486.00
41.96932,-3.199390,1488.00
42.00450,-3.199236,1490.00
42.04093,-3.199101,1492.00
42.07199,-3.198680,1494.00
42.10646,-3.198858,1496.00
42.13948,-3.199059,1498.00
42.17203,-3.199400,1500.00
42.20397,-3.199621,1502.00
42.23634,-3.200460,1504.00
42.27006,-3.200776,1506.00
42.30093,-3.200407,1508.00
42.33397,-3.199895,1510.00
42.36787,-3.199044,1512.00
42.40042,-3.198729,1514.00
42.43494,-3.199265,1516.00
42.46773,-3.200083,1518.00
42.49954,-3.200641,1520.00
42.52997,-3.200646,1522.00
42.56373,-3.200966,1524.00
42.59763,-3.201497,1526.00
42.63143,-3.201207,1528.00
42.66459,-3.201272,1530.00
42.69782,-3.200809,1532.00
42.73192,-3.200572,1534.00
42.76665,-3.200612,1536.00
42.79877,-3.201294,1538.00
42.83205,-3.201382,1540.00
42.86535,-3.201862,1542.00
42.89859,-3.202731,1544.00
42.93429,-3.203347,1546.00
42.96355,-3.203051,1548.00
42.99536,-3.202785,1550.00
43.03101,-3.202407,1552.00
43.06337,-3.201819,1554.00
43.09816,-3.201369,1556.00
43.13079,-3.201045,1558.00
43.16499,-3.201464,1560.00
43.19588,-3.201672,1562.00
43.23143,-3.202087,1564.00
43.26609,-3.203572,1566.00
43.29832,-3.204078,1568.00
43.33358,-3.204066,1570.00
43.36661,-3.203553,1572.00
43.40023,-3.203567,1574.00
43.43463,-3.203796,1576.00
43.46812,-3.204375,1578.00
43.50251,-3.204627,1580.00
43.53641,-3.204766,1582.00
43.56855,-3.205129,1584.00
43.60240,-3.205174,1586.00
43.63287,-3.205009,1588.00
43.66721,-3.205111,1590.00
43.69973,-3.205470,1592.00
43.73524,-3.205274,1594.00
43.76734,-3.204658,1596.00
43.80057,-3.204677,1598.00
43.83409,-3.205429,1600.00
43.86751,-3.205692,1602.00
43.90353,-3.205975,1604.00
43.93765,-3.206346,1606.00
43.96563,-3.206554,1608.00
43.99816,-3.206920,1610.00
44.03362,-3.206632,1612.00
44.06750,-3.206918,1614.00
44.10385,-3.207033,1616.00
44.13630,-3.206818,1618.00
44.16725,-3.206610,1620.00
44.20106,-3.206681,1622.00
44.23467,-3.206602,1624.00
44.26819,-3.206607,1626.00
44.30038,-3.207075,1628.00
44.33475,-3.206803,1630.00
44.36760,-3.206367,1632.00
44.40345,-3.206442,1634.00
44.43341,-3.207181,1636.00
44.46410,-3.208100,1638.00
44.49676,-3.208459,1640.00
44.53228,-3.208748,1642.00
44.56497,-3.209237,1644.00
44.59967,-3.209470,1646.00
44.63418,-3.208979,1648.00
44.66613,-3.208674,1650.00
44.69703,-3.208062,1652.00
44.73096,-3.207733,1654.00
44.76343,-3.207936,1656.00
44.79745,-3.208644,1658.00
44.83262,-3.209688,1660.00
44.86697,-3.210263,1662.00
44.89883,-3.210420,1664.00
44.93131,-3.210697,1666.00
44.96518,-3.210332,1668.00
44.99836,-3.210148,1670.00
45.03070,-3.210128,1672.00
45.06467,-3.210059,1674.00
45.09939,-3.209655,1676.00
45.13119,-3.209741,1678.00
45.16513,-3.210041,1680.00
45.20041,-3.210029,1682.00
45.23332,-3.210420,1684.00
45.26731,-3.210819,1686.00
45.30127,-3.211312,1688.00
45.33387,-3.211726,1690.00
45.36652,-3.212203,1692.00
45.40147,-3.212024,1694.00
45.43385,-3.211916,1696.00
45.46703,-3.211855,1698.00
45.50171,-3.211952,1700.00
45.53434,-3.212336,1702.00
45.56568,-3.212953,1704.00
45.59765,-3.213311,1706.00
45.63185,-3.213784,1708.00
45.66582,-3.214424,1710.00
45.69838,-3.214759,1712.00
45.73294,-3.214366,1714.00
45.76264,-3.213501,1716.00
45.79367,-3.213497,1718.00
45.83038,-3.213443,1720.00
45.86649,-3.213820,1722.00
45.89962,-3.214094,1724.00
45.93402,-3.214505,1726.00
45.96982,-3.214902,1728.00
46.00281,-3.215457,1730.00
46.03474,-3.215723,1732.00
46.06719,-3.215879,1734.00
46.09959,-3.215444,1736.00
46.13443,-3.215159,1738.00
46.16782,-3.214698,1740.00
46.19931,-3.214676,1742.00
46.23325,-3.215158,1744.00
46.26592,-3.215830,1746.00
46.29817,-3.216425,1748.00
46.33340,-3.217226,1750.00
46.36831,-3.217259,1752.00
46.39985,-3.217233,1754.00
46.43523,-3.217440,1756.00
46.46764,-3.217510,1758.00
46.49831,-3.217557,1760.00
46.53362,-3.217767,1762.00
46.56592,-3.217032,1764.00
46.59914,-3.216506,1766.00
46.63302,-3.216946,1768.00
46.66730,-3.217441,1770.00
46.70082,-3.218246,1772.00
46.73361,-3.219077,1774.00
46.76678,-3.219247,1776.00
46.80052,-3.219331,1778.00
46.83658,-3.219345,1780.00
46.86938,-3.219535,1782.00
46.90259,-3.219797,1784.00
46.93531,-3.219039,1786.00
46.97001,-3.218895,1788.00
47.00436,-3.218884,1790.00
47.03477,-3.218922,1792.00
47.06612,-3.219312,1794.00
47.10166,-3.219677,1796.00
47.13575,-3.220393,1798.00
47.16956,-3.220634,1800.00
47.20188,-3.221342,1802.00
47.23357,-3.221937,1804.00
47.26839,-3.222006,1806.00
47.30173,-3.221635,1808.00
47.33746,-3.222317,1810.00
47.37079,-3.222913,1812.00
47.40297,-3.223044,1814.00
47.43571,-3.223153,1816.00
47.46697,-3.223784,1818.00
47.49958,-3.224214,1820.00
47.53430,-3.223674,1822.00
47.56853,-3.224085,1824.00
47.60000,-3.223211,1826.00
47.63123,-3.222312,1828.00
47.66485,-3.222446,1830.00
47.69819,-3.222766,1832.00
47.73037,-3.223316,1834.00
47.76332,-3.223773,1836.00
47.79854,-3.223872,1838.00
47.83214,-3.223756,1840.00
47.86478,-3.223932,1842.00
47.89526,-3.224125,1844.00
47.93005,-3.224453,1846.00
47.96155,-3.225229,1848.00
47.99524,-3.225666,1850.00
48.02556,-3.226185,1852.00
48.05974,-3.226654,1854.00
48.09439,-3.226900,1856.00
48.12717,-3.226906,1858.00
48.16037,-3.226719,1860.00
48.19333,-3.227196,1862.00
48.22943,-3.226838,1864.00
48.26260,-3.226855,1866.00
48.29761,-3.226879,1868.00
48.32927,-3.227425,1870.00
48.36233,-3.227798,1872.00
48.39838,-3.227980,1874.00
48.42891,-3.228347,1876.00
48.46103,-3.228756,1878.00
48.49349,-3.229391,1880.00
48.52606,-3.229385,1882.00
48.55725,-3.229278,1884.00
48.59193,-3.229848,1886.00
48.62923,-3.230065,1888.00
48.65995,-3.230171,1890.00
48.69072,-3.229870,1892.00
48.72388,-3.229707,1894.00
48.75957,-3.229376,1896.00
48.79310,-3.229555,1898.00
48.82680,-3.230328,1900.00
48.85831,-3.230801,1902.00
48.89062,-3.231555,1904.00
48.92525,-3.231580,1906.00
48.96010,-3.231908,1908.00
48.99232,-3.232178,1910.00
49.02695,-3.232546,1912.00
49.06022,-3.231989,1914.00
49.09288,-3.231778,1916.00
49.12494,-3.231781,1918.00
49.15941,-3.232124,1920.00
49.19458,-3.232646,1922.00
49.22730,-3.232575,1924.00
49.25805,-3.232548,1926.00
49.29304,-3.232444,1928.00
49.32693,-3.232472,1930.00
49.35939,-3.232597,1932.00
49.39149,-3.232761,1934.00
49.42266,-3.233119,1936.00
49.45453,-3.234188,1938.00
49.48752,-3.234790,1940.00
49.51864,-3.235572,1942.00
49.55298,-3.236278,1944.00
49.58571,-3.236512,1946.00
49.61770,-3.235985,1948.00
49.64821,-3.235580,1950.00
49.68231,-3.235798,1952.00
49.71743,-3.235806,1954.00
49.75139,-3.235978,1956.00
49.78423,-3.236806,1958.00
49.81868,-3.237856,1960.00
49.85261,-3.238307,1962.00
49.88469,-3.238672,1964.00
49.91876,-3.238701,1966.00
49.95199,-3.238718,1968.00
49.98499,-3.239136,1970.00
50.01872,-3.238606,1972.00
50.05243,-3.237874,1974.00
50.08573,-3.238077,1976.00
50.11849,-3.238955,1978.00
50.15459,-3.239228,1980.00
50.18515,-3.239961,1982.00
50.21785,-3.240282,1984.00
50.25154,-3.240557,1986.00
50.28586,-3.241059,1988.00
50.32074,-3.240494,1990.00
50.35177,-3.240601,1992.00
50.38468,-3.240933,1994.00
50.41731,-3.241358,1996.00
50.45117,-3.241308,1998.00
50.48465,-3.241439,2000.00
50.51831,-3.241841,2002.00
50.55584,-3.242707,2004.00
50.58602,-3.243280,2006.00
50.61899,-3.243440,2008.00
50.65379,-3.243705,2010.00
50.68708,-3.244348,2012.00
50.72157,-3.244593,2014.00
50.75440,-3.244847,2016.00
50.78858,-3.244532,2018.00
50.82333,-3.244075,2020.00
50.85646,-3.244108,2022.00
50.88876,-3.244482,2024.00
50.92353,-3.244830,2026.00
50.95454,-3.245461,2028.00
50.98700,-3.246296,2030.00
51.01991,-3.247135,2032.00
51.05159,-3.248253,2034.00
51.08302,-3.248249,2036.00
51.11652,-3.248051,2038.00
51.14877,-3.247495,2040.00
51.18185,-3.247494,2042.00
51.21459,-3.247599,2044.00
51.24803,-3.247454,2046.00
51.28022,-3.247936,2048.00
51.31339,-3.248766,2050.00
51.34883,-3.249199,2052.00
51.38073,-3.249814,2054.00
51.41603,-3.250258,2056.00
51.44799,-3.250450,2058.00
51.48455,-3.250069,2060.00
51.51676,-3.250186,2062.00
51.54946,-3.249596,2064.00
51.58151,-3.249310,2066.00
51.61759,-3.249095,2068.00
51.64868,-3.250220,2070.00
51.68444,-3.251467,2072.00
51.71838,-3.252107,2074.00
51.75071,-3.252407,2076.00
51.78351,-3.253118,2078.00
51.81589,-3.252785,2080.00
51.84930,-3.252404,2082.00
51.87982,-3.252475,2084.00
51.91189,-3.253669,2086.00
51.94509,-3.254285,2088.00
51.98080,-3.254334,2090.00
52.01110,-3.254401,2092.00
52.04206,-3.255190,2094.00
52.07508,-3.255449,2096.00
52.10659,-3.255465,2098.00
52.14204,-3.255743,2100.00
52.17612,-3.255528,2102.00
52.20892,-3.255521,2104.00
52.24190,-3.256396,2106.00
52.27471,-3.256427,2108.00
52.30546,-3.257104,2110.00
52.33773,-3.257785,2112.00
52.37173,-3.258210,2114.00
52.40518,-3.258398,2116.00
52.43853,-3.258056,2118.00
52.47327,-3.257763,2120.00
52.50807,-3.257821,2122.00
52.53840,-3.257885,2124.00
52.57273,-3.257709,2126.00
52.60637,-3.258646,2128.00
52.63626,-3.259342,2130.00
52.66941,-3.259808,2132.00
52.70193,-3.260350,2134.00
52.73528,-3.261259,2136.00
52.76935,-3.261602,2138.00
52.79920,-3.261646,2140.00
52.83000,-3.262004,2142.00
52.86617,-3.261551,2144.00
52.89833,-3.261144,2146.00
52.93127,-3.260997,2148.00
52.96696,-3.261189,2150.00
52.99850,-3.262140,2152.00
53.03111,-3.262561,2154.00
53.06452,-3.263459,2156.00
53.09757,-3.264123,2158.00
53.12893,-3.264141,2160.00
53.16056,-3.263796,2162.00
53.19219,-3.263722,2164.00
53.22552,-3.263589,2166.00
53.25901,-3.264330,2168.00
53.29145,-3.265139,2170.00
53.32450,-3.265735,2172.00
53.35546,-3.266133,2174.00
53.38778,-3.266492,2176.00
53.41668,-3.266534,2178.00
53.45320,-3.266304,2180.00
53.48472,-3.266329,2182.00
53.51723,-3.266445,2184.00
53.55090,-3.266973,2186.00
53.58397,-3.267356,2188.00
53.61281,-3.267799,2190.00
53.64629,-3.267754,2192.00
53.67972,-3.268294,2194.00
53.71208,-3.268269,2196.00
53.74574,-3.268478,2198.00
53.77959,-3.268823,2200.00
53.81358,-3.269300,2202.00
53.84748,-3.269580,2204.00
53.88029,-3.270506,2206.00
53.91317,-3.271092,2208.00
53.94838,-3.270898,2210.00
53.98541,-3.271572,2212.00
54.01928,-3.271430,2214.00
54.05251,-3.271873,2216.00
54.08923,-3.271806,2218.00
54.12257,-3.271928,2220.00
54.15665,-3.272405,2222.00
54.18822,-3.273167,2224.00
54.22152,-3.273633,2226.00
54.25460,-3.273767,2228.00
54.28461,-3.274293,2230.00
54.31931,-3.274360,2232.00
54.35373,-3.274891,2234.00
54.38769,-3.274538,2236.00
54.41945,-3.274133,2238.00
54.45219,-3.274142,2240.00
54.48359,-3.274346,2242.00
54.51880,-3.274844,2244.00
54.54928,-3.275246,2246.00
54.58289,-3.276197,2248.00
54.61547,-3.276879,2250.00
54.64846,-3.277508,2252.00
54.67952,-3.277610,2254.00
54.71174,-3.278274,2256.00
54.74669,-3.278796,2258.00
54.77926,-3.279008,2260.00
54.81093,-3.279101,2262.00
54.84314,-3.278506,2264.00
54.87471,-3.278198,2266.00
54.90620,-3.278822,2268.00
54.94053,-3.279559,2270.00
54.97547,-3.279866,2272.00
55.00606,-3.280461,2274.00
55.03957,-3.281197,2276.00
55.07248,-3.281952,2278.00
55.10598,-3.282125,2280.00
55.13804,-3.282074,2282.00
55.17173,-3.282233,2284.00
55.20400,-3.282042,2286.00
55.23808,-3.281804,2288.00
55.26994,-3.282110,2290.00
55.30469,-3.281951,2292.00
55.33735,-3.282193,2294.00
55.37015,-3.282498,2296.00
55.40407,-3.282544,2298.00
55.43798,-3.282965,2300.00
55.47156,-3.283827,2302.00
55.50575,-3.284334,2304.00
55.53690,-3.284697,2306.00
55.57068,-3.285038,2308.00
55.60361,-3.286041,2310.00
55.63815,-3.286953,2312.00
55.66901,-3.287431,2314.00
55.70281,-3.287940,2316.00
55.73662,-3.288087,2318.00
55.76961,-3.288221,2320.00
55.80158,-3.288309,2322.00
55.83471,-3.288791,2324.00
55.86715,-3.289124,2326.00
55.89896,-3.289979,2328.00
55.93267,-3.289954,2330.00
55.96545,-3.290248,2332.00
56.00163,-3.290893,2334.00
56.03315,-3.291801,2336.00
56.06540,-3.291913,2338.00
56.09649,-3.292545,2340.00
56.12930,-3.292544,2342.00
56.16197,-3.292759,2344.00
56.19620,-3.293129,2346.00
56.22802,-3.293152,2348.00
56.26290,-3.293421,2350.00
56.29475,-3.294172,2352.00
56.32764,-3.294437,2354.00
56.36099,-3.295012,2356.00
56.39326,-3.295504,2358.00
56.42697,-3.296656,2360.00
56.45751,-3.296658,2362.00
56.49229,-3.296995,2364.00
56.52632,-3.297570,2366.00
56.56152,-3.297564,2368.00
56.59519,-3.297271,2370.00
56.62655,-3.297643,2372.00
56.65991,-3.297915,2374.00
56.69275,-3.298083,2376.00
56.72321,-3.298525,2378.00
56.75904,-3.299528,2380.00
56.79294,-3.300453,2382.00
56.82455,-3.300812,2384.00
56.85700,-3.300764,2386.00
56.89115,-3.301490,2388.00
56.92389,-3.302005,2390.00
56.95631,-3.302231,2392.00
56.98960,-3.302628,2394.00
57.02296,-3.302811,2396.00
57.05640,-3.303203,2398.00
57.08986,-3.303489,2400.00
57.12423,-3.303620,2402.00
57.15835,-3.303621,2404.00
57.19036,-3.304451,2406.00
57.22470,-3.305339,2408.00
57.25555,-3.306066,2410.00
57.28800,-3.307004,2412.00
57.32209,-3.307851,2414.00
57.35041,-3.309019,2416.00
57.38636,-3.309420,2418.00
57.41996,-3.309744,2420.00
57.45267,-3.310316,2422.00
57.48367,-3.310436,2424.00
57.51785,-3.310897,2426.00
57.55390,-3.311065,2428.00
57.58721,-3.310986,2430.00
57.61953,-3.311134,2432.00
57.65516,-3.311440,2434.00
57.68701,-3.312185,2436.00
57.71784,-3.312859,2438.00
57.74917,-3.313762,2440.00
57.78360,-3.314820,2442.00
57.81686,-3.315270,2444.00
57.84737,-3.315434,2446.00
57.88088,-3.315600,2448.00
57.91554,-3.315924,2450.00
57.95104,-3.316404,2452.00
57.98307,-3.316548,2454.00
58.01552,-3.317559,2456.00
58.04908,-3.318949,2458.00
58.08172,-3.320212,2460.00
58.11666,-3.320543,2462.00
58.15026,-3.321079,2464.00
58.18434,-3.321871,2466.00
58.21442,-3.322159,2468.00
58.24784,-3.322539,2470.00
58.28062,-3.322279,2472.00
58.31590,-3.322547,2474.00
58.35012,-3.322460,2476.00
58.38258,-3.321995,2478.00
58.41732,-3.321901,2480.00
58.44744,-3.322491,2482.00
58.47954,-3.323162,2484.00
58.51307,-3.324575,2486.00
58.54646,-3.326066,2488.00
58.57904,-3.327124,2490.00
58.61409,-3.328125,2492.00
58.64585,-3.328757,2494.00
58.67891,-3.328940,2496.00
58.71231,-3.329008,2498.00
58.74351,-3.329639,2500.00
58.77703,-3.330466,2502.00
58.80941,-3.330954,2504.00
58.84052,-3.330330,2506.00
58.87601,-3.330106,2508.00
58.91210,-3.330217,2510.00
58.94450,-3.330553,2512.00
58.97599,-3.330953,2514.00
59.00634,-3.331356,2516.00
59.04140,-3.332184,2518.00
59.07595,-3.333176,2520.00
59.10780,-3.334289,2522.00
59.14186,-3.335061,2524.00
59.17408,-3.335736,2526.00
59.20505,-3.335830,2528.00
59.24006,-3.336009,2530.00
59.27471,-3.336302,2532.00
59.30582,-3.336576,2534.00
59.34052,-3.336637,2536.00
59.37481,-3.336749,2538.00
59.40953,-3.337146,2540.00
59.44188,-3.337605,2542.00
59.47670,-3.338551,2544.00
59.51065,-3.339668,2546.00
59.54434,-3.340054,2548.00
59.57692,-3.339737,2550.00
59.61157,-3.340764,2552.00
59.64421,-3.341054,2554.00
59.67624,-3.341532,2556.00
59.70994,-3.342585,2558.00
59.74116,-3.343334,2560.00
59.77323,-3.343457,2562.00
59.80660,-3.344157,2564.00
59.84030,-3.345140,2566.00
59.87546,-3.345028,2568.00
59.90840,-3.344938,2570.00
59.94016,-3.345573,2572.00
59.97668,-3.346311,2574.00
60.00645,-3.346639,2576.00
60.03964,-3.346693,2578.00
60.07507,-3.346675,2580.00
60.10756,-3.346109,2582.00
60.14011,-3.346651,2584.00
60.17315,-3.347671,2586.00
60.20662,-3.348753,2588.00
60.23803,-3.349745,2590.00
60.27117,-3.350097,2592.00
60.30611,-3.351427,2594.00
60.33958,-3.351946,2596.00
60.37224,-3.352962,2598.00
60.40252,-3.353088,2600.00
60.43720,-3.353158,2602.00
60.47175,-3.353989,2604.00
60.50405,-3.354886,2606.00
60.53867,-3.355468,2608.00
60.57178,-3.355832,2610.00
60.60454,-3.356299,2612.00
60.63894,-3.356345,2614.00
60.67016,-3.356683,2616.00
60.70417,-3.356439,2618.00
60.74027,-3.356729,2620.00
60.77233,-3.357170,2622.00
60.80632,-3.357927,2624.00
60.83928,-3.359101,2626.00
60.87036,-3.360293,2628.00
60.90571,-3.361038,2630.00
60.93979,-3.361298,2632.00
60.97164,-3.362310,2634.00
61.00263,-3.362152,2636.00
61.03717,-3.362404,2638.00
61.06920,-3.362722,2640.00
61.10453,-3.363396,2642.00
61.13848,-3.363932,2644.00
61.17061,-3.364424,2646.00
61.20480,-3.365448,2648.00
61.23394,-3.366659,2650.00
61.26345,-3.367205,2652.00
61.29724,-3.367592,2654.00
61.33231,-3.367952,2656.00
61.36601,-3.368658,2658.00
61.39908,-3.369714,2660.00
61.43390,-3.370755,2662.00
61.46366,-3.370754,2664.00
61.49568,-3.371399,2666.00
61.52992,-3.372555,2668.00
61.56458,-3.373009,2670.00
61.59722,-3.373562,2672.00
61.63058,-3.374662,2674.00
61.66389,-3.376114,2676.00
61.69756,-3.377197,2678.00
61.73200,-3.378509,2680.00
61.76671,-3.379051,2682.00
61.80007,-3.379579,2684.00
61.83180,-3.379706,2686.00
61.86204,-3.380604,2688.00
61.89818,-3.381644,2690.00
61.93331,-3.382455,2692.00
61.96393,-3.383162,2694.00
61.99673,-3.383265,2696.00
62.02900,-3.383542,2698.00
62.06382,-3.383603,2700.00
62.09791,-3.383714,2702.00
62.12920,-3.384269,2704.00
62.16299,-3.385449,2706.00
62.19616,-3.385824,2708.00
62.22790,-3.386303,2710.00
62.26043,-3.387454,2712.00
62.29397,-3.388877,2714.00
62.32756,-3.389946,2716.00
62.36272,-3.391673,2718.00
62.39529,-3.392587,2720.00
62.43100,-3.393573,2722.00
62.46165,-3.394236,2724.00
62.49352,-3.395001,2726.00
62.52924,-3.395568,2728.00
62.56195,-3.396041,2730.00
62.59253,-3.396052,2732.00
62.62803,-3.396712,2734.00
62.66255,-3.397492,2736.00
62.69527,-3.398402,2738.00
62.72690,-3.399247,2740.00
62.75959,-3.400080,2742.00
62.79202,-3.400982,2744.00
62.82732,-3.402334,2746.00
62.85897,-3.403347,2748.00
62.89207,-3.404326,2750.00
62.92755,-3.405003,2752.00
62.95910,-3.405350,2754.00
62.99365,-3.405494,2756.00
63.02622,-3.405931,2758.00
63.05838,-3.406172,2760.00
63.09279,-3.406510,2762.00
63.12599,-3.407874,2764.00
63.15780,-3.408766,2766.00
63.19171,-3.410035,2768.00
63.22625,-3.411233,2770.00
63.26210,-3.411256,2772.00
63.29320,-3.412489,2774.00
63.32695,-3.413487,2776.00
63.36020,-3.414260,2778.00
63.39285,-3.414772,2780.00
63.42544,-3.414982,2782.00
63.45588,-3.414888,2784.00
63.49024,-3.415492,2786.00
63.52429,-3.416523,2788.00
63.55777,-3.417826,2790.00
63.59220,-3.419308,2792.00
63.62627,-3.419809,2794.00
63.65743,-3.420347,2796.00
63.69105,-3.421019,2798.00
63.72712,-3.421297,2800.00
63.75966,-3.422250,2802.00
63.78984,-3.423332,2804.00
63.82456,-3.424325,2806.00
63.85781,-3.425320,2808.00
63.89166,-3.426483,2810.00
63.92679,-3.427828,2812.00
63.96172,-3.428407,2814.00
63.99393,-3.429121,2816.00
64.02804,-3.428883,2818.00
64.05975,-3.428818,2820.00
64.09320,-3.429708,2822.00
64.12189,-3.430204,2824.00
64.15668,-3.430908,2826.00
64.18920,-3.432238,2828.00
64.22553,-3.433370,2830.00
64.25934,-3.434031,2832.00
64.29360,-3.435105,2834.00
64.32355,-3.435685,2836.00
64.35519,-3.436917,2838.00
64.38974,-3.438013,2840.00
64.42086,-3.438819,2842.00
64.45490,-3.439212,2844.00
64.48992,-3.439543,2846.00
64.52121,-3.439816,2848.00
64.55455,-3.440665,2850.00
64.58957,-3.442092,2852.00
64.62286,-3.443486,2854.00
64.65492,-3.444733,2856.00
64.68642,-3.445977,2858.00
64.71796,-3.446432,2860.00
64.75236,-3.447272,2862.00
64.78572,-3.448490,2864.00
64.81816,-3.449200,2866.00
64.85299,-3.449688,2868.00
64.88589,-3.450066,2870.00
64.92146,-3.450858,2872.00
64.95315,-3.451483,2874.00
64.98880,-3.452018,2876.00
65.02320,-3.452805,2878.00
65.05439,-3.454262,2880.00
65.08881,-3.455343,2882.00
65.12170,-3.456504,2884.00
65.15643,-3.457870,2886.00
65.18678,-3.458745,2888.00
65.21778,-3.458859,2890.00
65.25157,-3.459520,2892.00
65.28445,-3.461526,2894.00
65.31623,-3.462550,2896.00
65.35185,-3.463332,2898.00
65.38511,-3.464316,2900.00
65.41699,-3.465572,2902.00
65.45167,-3.466581,2904.00
65.48640,-3.467589,2906.00
65.51970,-3.468425,2908.00
65.55205,-3.469849,2910.00
65.58498,-3.471075,2912.00
65.61707,-3.472077,2914.00
65.65213,-3.473240,2916.00
65.68398,-3.474174,2918.00
65.71821,-3.474682,2920.00
65.75342,-3.474958,2922.00
65.78657,-3.475549,2924.00
65.81863,-3.475938,2926.00
65.85132,-3.476841,2928.00
65.88497,-3.477874,2930.00
65.91759,-3.479045,2932.00
65.95049,-3.480185,2934.00
65.98339,-3.481768,2936.00
66.01709,-3.482697,2938.00
66.04972,-3.483173,2940.00
66.08476,-3.483894,2942.00
66.11688,-3.484649,2944.00
66.14804,-3.484920,2946.00
66.18167,-3.485650,2948.00
66.21455,-3.487057,2950.00
66.24626,-3.488803,2952.00
66.27962,-3.489772,2954.00
66.31354,-3.490939,2956.00
66.34458,-3.491968,2958.00
66.37680,-3.493411,2960.00
66.41101,-3.494889,2962.00
66.44654,-3.495518,2964.00
66.48031,-3.495720,2966.00
66.51325,-3.496447,2968.00
66.54757,-3.497305,2970.00
66.58131,-3.498203,2972.00
66.61391,-3.499395,2974.00
66.64706,-3.499768,2976.00
66.68085,-3.500638,2978.00
66.71249,-3.502306,2980.00
66.74649,-3.503496,2982.00
66.77886,-3.504932,2984.00
66.81041,-3.505883,2986.00
66.84425,-3.506869,2988.00
66.87835,-3.507599,2990.00
66.90836,-3.508477,2992.00
66.94531,-3.509188,2994.00
66.97785,-3.510347,2996.00
67.01189,-3.511674,2998.00
67.04620,-3.512798,3000.00
67.07860,-3.513585,3002.00
67.11139,-3.514733,3004.00
67.14388,-3.515256,3006.00
67.17837,-3.515859,3008.00
67.21360,-3.516844,3010.00
67.24625,-3.517235,3012.00
67.28078,-3.518320,3014.00
67.31208,-3.519164,3016.00
67.34518,-3.520201,3018.00
67.37904,-3.521058,3020.00
67.41236,-3.522189,3022.00
67.44470,-3.523343,3024.00
67.47920,-3.524406,3026.00
67.51046,-3.526019,3028.00
67.54322,-3.527234,3030.00
67.57640,-3.527921,3032.00
67.61090,-3.529044,3034.00
67.64483,-3.529748,3036.00
67.68026,-3.530550,3038.00
67.71231,-3.531451,3040.00
67.74559,-3.531832,3042.00
67.77994,-3.533062,3044.00
67.81088,-3.534396,3046.00
67.84495,-3.535523,3048.00
67.87805,-3.537061,3050.00
67.91092,-3.537796,3052.00
67.94453,-3.538243,3054.00
67.97968,-3.538855,3056.00
68.01125,-3.539276,3058.00
68.04630,-3.539852,3060.00
68.07923,-3.540604,3062.00
68.11083,-3.541742,3064.00
68.14379,-3.543353,3066.00
68.17923,-3.545116,3068.00
68.21217,-3.546340,3070.00
68.24371,-3.547577,3072.00
68.27820,-3.548991,3074.00
68.31308,-3.549857,3076.00
68.34492,-3.550762,3078.00
68.37931,-3.551365,3080.00
68.41165,-3.551898,3082.00
68.44266,-3.552996,3084.00
68.47776,-3.553490,3086.00
68.51201,-3.554159,3088.00
68.54460,-3.555901,3090.00
68.57719,-3.557182,3092.00
68.61053,-3.558139,3094.00
68.64238,-3.559563,3096.00
68.67702,-3.560875,3098.00
68.70931,-3.562011,3100.00
68.74533,-3.562982,3102.00
68.77834,-3.563853,3104.00
68.81078,-3.563996,3106.00
68.84256,-3.564917,3108.00
68.87710,-3.565938,3110.00
68.90956,-3.567304,3112.00
68.94229,-3.568201,3114.00
68.97693,-3.569478,3116.00
69.00922,-3.570973,3118.00
69.04246,-3.573013,3120.00
69.07665,-3.573690,3122.00
69.10795,-3.573721,3124.00
69.13622,-3.574100,3126.00
69.16890,-3.575000,3128.00
69.20475,-3.575716,3130.00
69.23786,-3.577530,3132.00
69.27087,-3.579737,3134.00
69.30215,-3.581522,3136.00
69.33370,-3.581964,3138.00
69.36990,-3.582875,3140.00
69.40052,-3.584626,3142.00
69.43585,-3.585511,3144.00
69.47189,-3.585746,3146.00
69.50200,-3.586430,3148.00
69.53278,-3.586956,3150.00
69.56553,-3.588071,3152.00
69.59850,-3.588884,3154.00
69.63289,-3.590233,3156.00
69.66848,-3.591756,3158.00
69.70104,-3.593288,3160.00
69.73198,-3.594693,3162.00
69.76518,-3.596175,3164.00
69.80021,-3.597294,3166.00
69.83352,-3.598396,3168.00
69.86798,-3.599436,3170.00
69.90008,-3.600261,3172.00
69.93243,-3.602194,3174.00
69.96368,-3.603742,3176.00
69.99957,-3.604754,3178.00
70.03242,-3.605690,3180.00
70.06418,-3.606446,3182.00
70.09725,-3.606883,3184.00
70.13120,-3.607704,3186.00
70.16460,-3.608625,3188.00
70.19832,-3.609279,3190.00
70.23296,-3.610009,3192.00
70.26767,-3.611146,3194.00
70.29799,-3.611810,3196.00
70.33361,-3.612662,3198.00
70.36646,-3.613283,3200.00
70.40201,-3.614833,3202.00
70.43460,-3.616410,3204.00
70.46511,-3.618115,3206.00
70.49961,-3.619433,3208.00
70.53601,-3.621019,3210.00
70.56709,-3.621847,3212.00
70.60270,-3.623101,3214.00
70.63547,-3.624354,3216.00
70.66773,-3.625253,3218.00
70.70146,-3.627084,3220.00
70.73359,-3.628657,3222.00
70.76751,-3.629981,3224.00
70.80288,-3.630936,3226.00
70.83616,-3.632212,3228.00
70.86952,-3.633303,3230.00
70.90223,-3.634116,3232.00
70.93499,-3.635381,3234.00
70.96943,-3.637128,3236.00
71.00296,-3.638435,3238.00
71.03575,-3.639257,3240.00
71.06658,-3.641114,3242.00
71.10109,-3.642577,3244.00
71.13635,-3.643470,3246.00
71.16926,-3.644670,3248.00
71.20123,-3.645329,3250.00
71.23574,-3.646580,3252.00
71.26909,-3.646894,3254.00
71.30021,-3.647141,3256.00
71.33305,-3.647775,3258.00
71.36724,-3.648907,3260.00
71.40009,-3.650794,3262.00
71.43339,-3.652562,3264.00
71.46684,-3.653953,3266.00
71.49955,-3.655075,3268.00
71.53220,-3.656496,3270.00
71.56273,-3.658361,3272.00
71.59696,-3.659124,3274.00
71.62985,-3.660047,3276.00
71.66376,-3.661034,3278.00
71.69582,-3.660958,3280.00
71.72763,-3.661703,3282.00
71.76135,-3.662666,3284.00
71.79429,-3.664340,3286.00
71.82895,-3.666124,3288.00
71.86231,-3.667595,3290.00
71.89647,-3.668590,3292.00
71.93049,-3.669556,3294.00
71.96252,-3.670149,3296.00
71.99611,-3.670267,3298.00
72.02835,-3.670743,3300.00
72.06286,-3.671828,3302.00
72.09895,-3.673060,3304.00
72.13417,-3.674095,3306.00
72.16779,-3.674948,3308.00
72.20585,-3.676086,3310.00
72.23747,-3.677857,3312.00
72.27237,-3.679167,3314.00
72.30491,-3.679506,3316.00
72.33757,-3.680311,3318.00
72.37123,-3.681529,3320.00
72.40780,-3.682053,3322.00
72.44327,-3.682509,3324.00
72.47737,-3.682910,3326.00
72.51070,-3.683368,3328.00
72.54360,-3.684090,3330.00
72.57695,-3.684755,3332.00
72.61153,-3.684917,3334.00
72.64384,-3.684518,3336.00
72.67685,-3.683851,3338.00
72.70940,-3.683540,3340.00
72.74273,-3.682851,3342.00
72.77589,-3.682611,3344.00
72.81026,-3.683300,3346.00
72.84655,-3.682488,3348.00
72.88012,-3.681561,3350.00
72.91213,-3.679696,3352.00
72.94527,-3.677895,3354.00
72.98008,-3.675287,3356.00
73.01194,-3.671705,3358.00
73.04372,-3.667463,3360.00
73.07372,-3.661331,3362.00
73.10913,-3.652689,3364.00
73.14320,-3.641435,3366.00
73.17838,-3.627195,3368.00
73.21046,-3.606389,3370.00
73.24502,-3.579013,3372.00
73.28054,-3.540541,3374.00
73.31152,-3.484667,3376.00
73.34665,-3.404654,3378.00
73.37885,-3.290036,3380.00
73.41324,-3.123657,3382.00
73.44596,-2.878483,3384.00
73.47990,-2.506819,3386.00
73.51391,-1.944959,3388.00
73.54513,-1.142574,3390.00
73.58020,-0.138792,3392.00
73.61387,0.765328,3394.00
73.64622,1.099863,3396.00
73.67855,0.796965,3398.00
73.71158,0.117980,3400.00
73.74560,-0.625048,3402.00
73.77741,-1.267701,3404.00
73.80890,-1.782161,3406.00
73.84148,-2.187445,3408.00
73.87638,-2.507593,3410.00
73.90837,-2.761067,3412.00
73.94298,-2.962981,3414.00
73.97630,-3.124115,3416.00
74.00940,-3.252960,3418.00
74.04327,-3.357283,3420.00
74.07645,-3.439940,3422.00
74.10945,-3.505240,3424.00
74.14299,-3.558412,3426.00
74.17965,-3.600064,3428.00
74.21149,-3.633572,3430.00
74.24274,-3.660532,3432.00
74.27596,-3.682457,3434.00
74.31034,-3.699746,3436.00
74.34472,-3.713642,3438.00
74.37528,-3.724578,3440.00
74.40907,-3.733071,3442.00
74.44281,-3.739582,3444.00
74.47714,-3.744569,3446.00
74.51079,-3.748816,3448.00
74.54538,-3.752480,3450.00
74.57700,-3.754866,3452.00
74.61087,-3.756274,3454.00
74.64635,-3.757009,3456.00
74.67971,-3.757148,3458.00
74.70978,-3.756386,3460.00
74.74059,-3.755403,3462.00
74.77401,-3.753521,3464.00
74.80965,-3.752095,3466.00
74.84438,-3.749199,3468.00
74.87929,-3.745610,3470.00
74.91206,-3.741074,3472.00
74.94396,-3.735675,3474.00
74.97721,-3.729650,3476.00
75.01036,-3.722662,3478.00
75.04478,-3.714372,3480.00
75.07810,-3.705991,3482.00
75.11207,-3.695783,3484.00
75.14640,-3.683695,3486.00
75.17967,-3.669501,3488.00
75.21450,-3.652814,3490.00
75.24775,-3.632244,3492.00
75.28008,-3.607106,3494.00
75.31097,-3.577035,3496.00
75.34392,-3.541320,3498.00
75.37859,-3.496765,3500.00
75.41203,-3.441919,3502.00
75.44729,-3.371755,3504.00
75.47942,-3.282207,3506.00
75.50912,-3.164439,3508.00
75.54287,-3.005778,3510.00
75.57407,-2.785661,3512.00
75.60965,-2.469785,3514.00
75.64252,-1.999967,3516.00
75.67399,-1.277888,3518.00
75.70579,-0.155006,3520.00
75.74120,1.490092,3522.00
75.77294,3.659601,3524.00
75.80452,6.395983,3526.00
75.83797,9.145596,3528.00
75.87041,10.232867,3530.00
75.90328,9.065487,3532.00
75.93859,6.785526,3534.00
75.97041,4.552695,3536.00
76.00155,2.786130,3538.00
76.03682,1.419153,3540.00
76.06990,0.348791,3542.00
76.10348,-0.498718,3544.00
76.13980,-1.180504,3546.00
76.17212,-1.734258,3548.00
76.20488,-2.182907,3550.00
76.23622,-2.544773,3552.00
76.26762,-2.836142,3554.00
76.30267,-3.070878,3556.00
76.33534,-3.258838,3558.00
76.36968,-3.409188,3560.00
76.40346,-3.529779,3562.00
76.43707,-3.626021,3564.00
76.46832,-3.702838,3566.00
76.50209,-3.764353,3568.00
76.53573,-3.813926,3570.00
76.56786,-3.854077,3572.00
76.60131,-3.886585,3574.00
76.63543,-3.913808,3576.00
76.66867,-3.936049,3578.00
76.70039,-3.954736,3580.00
76.73313,-3.969277,3582.00
76.76520,-3.981291,3584.00
76.79969,-3.991802,3586.00
76.83177,-4.000661,3588.00
76.86722,-4.008536,3590.00
76.90082,-4.014545,3592.00
76.93437,-4.019923,3594.00
76.96577,-4.024394,3596.00
76.99897,-4.028523,3598.00
77.03271,-4.032838,3600.00
77.06732,-4.037102,3602.00
77.09772,-4.041127,3604.00
77.13073,-4.044189,3606.00
77.16382,-4.047032,3608.00
77.19564,-4.050576,3610.00
77.22861,-4.054145,3612.00
77.26467,-4.056710,3614.00
77.29863,-4.059067,3616.00
77.32895,-4.062225,3618.00
77.36360,-4.065173,3620.00
77.39683,-4.067474,3622.00
77.42910,-4.071036,3624.00
77.46222,-4.073932,3626.00
77.49686,-4.077857,3628.00
77.52709,-4.080757,3630.00
77.56093,-4.082786,3632.00
77.59628,-4.085033,3634.00
77.62830,-4.087376,3636.00
77.65871,-4.089530,3638.00
77.69397,-4.092256,3640.00
77.72672,-4.094806,3642.00
77.76420,-4.097551,3644.00
77.79763,-4.101284,3646.00
77.82982,-4.104212,3648.00
77.86145,-4.106673,3650.00
77.89503,-4.109743,3652.00
77.92976,-4.112787,3654.00
77.96447,-4.115697,3656.00
77.99711,-4.118106,3658.00
78.03029,-4.120062,3660.00
78.06557,-4.122130,3662.00
78.10114,-4.125067,3664.00
78.13191,-4.126985,3666.00
78.16425,-4.128195,3668.00
78.19778,-4.128710,3670.00
78.23072,-4.129870,3672.00
78.26222,-4.132311,3674.00
78.29334,-4.134368,3676.00
78.32805,-4.136830,3678.00
78.36265,-4.139867,3680.00
78.39531,-4.144274,3682.00
78.42832,-4.148936,3684.00
78.46304,-4.153743,3686.00
78.49561,-4.158217,3688.00
78.52824,-4.163165,3690.00
78.56022,-4.167916,3692.00
78.59552,-4.171816,3694.00
78.62662,-4.175559,3696.00
78.66042,-4.179210,3698.00
78.69457,-4.182628,3700.00
78.72996,-4.185450,3702.00
78.76193,-4.188029,3704.00
78.79268,-4.191517,3706.00
78.82787,-4.194924,3708.00
78.85800,-4.198694,3710.00
78.89008,-4.201913,3712.00
78.92515,-4.205676,3714.00
78.96057,-4.208845,3716.00
78.99373,-4.212214,3718.00
79.03053,-4.215833,3720.00
79.06394,-4.219141,3722.00
79.09651,-4.222321,3724.00
79.12953,-4.225573,3726.00
79.16299,-4.229320,3728.00
79.19573,-4.233164,3730.00
79.23020,-4.236370,3732.00
79.25995,-4.239431,3734.00
79.29174,-4.242617,3736.00
79.32673,-4.245950,3738.00
79.35929,-4.249846,3740.00
79.39185,-4.252848,3742.00
79.42490,-4.255168,3744.00
79.45963,-4.258621,3746.00
79.49296,-4.262343,3748.00
79.52776,-4.266391,3750.00
79.55823,-4.270325,3752.00
79.59248,-4.273869,3754.00
79.62575,-4.278117,3756.00
79.65937,-4.282089,3758.00
79.69247,-4.285315,3760.00
79.72528,-4.288099,3762.00
79.76125,-4.291681,3764.00
79.79254,-4.294956,3766.00
79.82571,-4.298635,3768.00
79.85828,-4.302684,3770.00
79.89246,-4.306098,3772.00
79.92910,-4.309539,3774.00
79.96163,-4.313381,3776.00
79.99231,-4.316863,3778.00

