$DSC2
$Conventional
$Adiabatic Mode
$Scanrate Corrected-Programmed
$Baseline Subtraction Method: 0 File: NONE
$DP Corrected
$RTD Corrected
$MidGain FB,  0.75 
$ADCGainCode:  0 
$ 10 
$NOT
$ 10 
$ 0            20            25           False
$ 0 
$ 15           80            60            5             0             2             2             0 
$ 15           80            60            5             0             2             2             0 
$ 15           80            60            5             0             2             2             0 
$ 15           80            60            5             0             2             2             0 
$ 15           80            60            5             0             2             2             0 
$ 15           80            60            5             0             2             2             0 
$ 15           80            60            5             0             2             2             0 
$ 15           80            60            5             0             2             2             0 
$ 15           80            60            5             0             2             2             0 
$ 15           80            60            5             0             2             2             0 
# 0 
# 0.5197
# 0
# 11.63 
# 0.75 
# 10.743 
? 
% VPDSC02.06.462
% 0.51971 
% 11.63 
%-0.995356 , 100.17434 
% 3.676 
% 250 ,       -22.5 
% 1000.3 , 1000.3 
% 0.88219 ,-0.02026 
%-0.08266 , 0.02515 
% 1 , 0.055 
% 0.0522 
% 1 , 130 
% 0.080433 , 0.056504 
% 0 , 8 
% 0 , 18 
% 0.072589046661 ,-0.003235099108 , 8.240903228419E-06 , 2.357972384211E-07 ,-7.440723641986E-10 
% VPViewer2000 Ver: 1.4.14
@8
17.40467,-3.194956,2.00
17.43729,-3.195127,4.00
17.47195,-3.195383,6.00
17.50422,-3.194856,8.00
17.53491,-3.194413,10.00
17.56854,-3.194364,12.00
17.60087,-3.194140,14.00
17.63495,-3.194204,16.00
17.66855,-3.194426,18.00
17.70151,-3.194392,20.00
17.73585,-3.194380,22.00
17.76888,-3.194702,24.00
17.80314,-3.194773,26.00
17.83637,-3.195061,28.00
17.86809,-3.194714,30.00
17.90316,-3.193810,32.00
17.93582,-3.193496,34.00
17.96888,-3.193593,36.00
18.00251,-3.193446,38.00
18.03687,-3.193205,40.00
18.06959,-3.192696,42.00
18.10458,-3.193028,44.00
18.13792,-3.193307,46.00
18.17191,-3.193228,48.00
18.20483,-3.193219,50.00
18.24066,-3.192921,52.00
18.27150,-3.193028,54.00
18.30031,-3.193048,56.00
18.33178,-3.192044,58.00
18.36632,-3.191479,60.00
18.39879,-3.191142,62.00
18.42896,-3.190929,64.00
18.46375,-3.191367,66.00
18.49524,-3.191978,68.00
18.52798,-3.192305,70.00
18.56121,-3.192764,72.00
18.59167,-3.192953,74.00
18.62505,-3.192381,76.00
18.66037,-3.192165,78.00
18.69381,-3.191783,80.00
18.72750,-3.191595,82.00
18.76314,-3.191537,84.00
18.79685,-3.191160,86.00
18.82669,-3.190733,88.00
18.85724,-3.190547,90.00
18.88923,-3.190704,92.00
18.92375,-3.190809,94.00
18.95691,-3.190942,96.00
18.99111,-3.190585,98.00
19.02316,-3.190320,100.00
19.05501,-3.190170,102.00
19.08517,-3.189956,104.00
19.11922,-3.189283,106.00
19.15137,-3.189119,108.00
19.18458,-3.189165,110.00
19.21807,-3.189182,112.00
19.25117,-3.189622,114.00
19.28326,-3.189981,116.00
19.31885,-3.189864,118.00
19.35071,-3.189871,120.00
19.38446,-3.189475,122.00
19.41598,-3.189261,124.00
19.44853,-3.188763,126.00
19.48184,-3.188233,128.00
19.51576,-3.188243,130.00
19.54717,-3.188521,132.00
19.58096,-3.188208,134.00
19.61546,-3.188304,136.00
19.64888,-3.188746,138.00
19.68139,-3.189447,140.00
19.71147,-3.189266,142.00
19.74473,-3.189739,144.00
19.77837,-3.189375,146.00
19.81039,-3.188725,148.00
19.84282,-3.188423,150.00
19.87402,-3.187737,152.00
19.90552,-3.187068,154.00
19.93933,-3.186682,156.00
19.97259,-3.186948,158.00
20.00652,-3.187052,160.00
20.03801,-3.187933,162.00
20.07487,-3.188328,164.00
20.10840,-3.187785,166.00
20.14096,-3.187984,168.00
20.17436,-3.187838,170.00
20.20815,-3.188001,172.00
20.23915,-3.187003,174.00
20.27150,-3.186787,176.00
20.30546,-3.186353,178.00
20.33908,-3.186353,180.00
20.36999,-3.185904,182.00
20.40505,-3.186034,184.00
20.43813,-3.186243,186.00
20.47072,-3.186473,188.00
20.50304,-3.186066,190.00
20.53630,-3.185701,192.00
20.57138,-3.185725,194.00
20.60773,-3.185746,196.00
20.64123,-3.186121,198.00
20.67331,-3.186111,200.00
20.70668,-3.186498,202.00
20.73767,-3.186101,204.00
20.76926,-3.186323,206.00
20.80317,-3.186448,208.00
20.83733,-3.186350,210.00
20.86959,-3.185684,212.00
20.90159,-3.185852,214.00
20.93440,-3.185624,216.00
20.96463,-3.184994,218.00
21.00143,-3.184611,220.00
21.03548,-3.184472,222.00
21.06895,-3.184532,224.00
21.10386,-3.185393,226.00
21.13730,-3.185195,228.00
21.16974,-3.184984,230.00
21.20211,-3.184819,232.00
21.23465,-3.184473,234.00
21.26617,-3.184266,236.00
21.30031,-3.183737,238.00
21.33290,-3.183076,240.00
21.36638,-3.182501,242.00
21.39673,-3.182328,244.00
21.42759,-3.182905,246.00
21.45974,-3.182714,248.00
21.49351,-3.182890,250.00
21.52899,-3.181977,252.00
21.56070,-3.181393,254.00
21.59571,-3.181296,256.00
21.63026,-3.181586,258.00
21.66020,-3.181694,260.00
21.69226,-3.182007,262.00
21.72743,-3.182417,264.00
21.75972,-3.182625,266.00
21.79303,-3.182984,268.00
21.82627,-3.183932,270.00
21.86010,-3.184046,272.00
21.89396,-3.183721,274.00
21.92686,-3.183411,276.00
21.95747,-3.183245,278.00
21.99150,-3.182800,280.00
22.02620,-3.182267,282.00
22.05748,-3.182630,284.00
22.09240,-3.182277,286.00
22.12373,-3.182234,288.00
22.15658,-3.182600,290.00
22.19031,-3.182068,292.00
22.21851,-3.181933,294.00
22.24874,-3.181497,296.00
22.28395,-3.181365,298.00
22.31708,-3.180982,300.00
22.35102,-3.181251,302.00
22.38261,-3.181675,304.00
22.41433,-3.182396,306.00
22.44718,-3.182576,308.00
22.48050,-3.183133,310.00
22.51234,-3.183029,312.00
22.54755,-3.182679,314.00
22.57913,-3.182671,316.00
22.61235,-3.182507,318.00
22.64293,-3.182276,320.00
22.67483,-3.181717,322.00
22.70982,-3.181306,324.00
22.74167,-3.181580,326.00
22.77470,-3.181929,328.00
22.80785,-3.182169,330.00
22.84194,-3.182067,332.00
22.87564,-3.182357,334.00
22.90879,-3.182985,336.00
22.94145,-3.182469,338.00
22.97591,-3.181861,340.00
23.01034,-3.181231,342.00
23.04189,-3.180623,344.00
23.07396,-3.181235,346.00
23.10763,-3.181922,348.00
23.14107,-3.181714,350.00
23.17499,-3.181222,352.00
23.20823,-3.180902,354.00
23.24227,-3.180589,356.00
23.27462,-3.180636,358.00
23.30366,-3.180699,360.00
23.33885,-3.181511,362.00
23.37165,-3.181445,364.00
23.40279,-3.181354,366.00
23.43627,-3.181268,368.00
23.46879,-3.181122,370.00
23.50045,-3.180997,372.00
23.53500,-3.180903,374.00
23.56824,-3.180821,376.00
23.60028,-3.181175,378.00
23.63227,-3.181457,380.00
23.66366,-3.181628,382.00
23.69980,-3.182041,384.00
23.73265,-3.182469,386.00
23.76686,-3.182678,388.00
23.79920,-3.182599,390.00
23.83289,-3.181891,392.00
23.86341,-3.181823,394.00
23.89923,-3.181556,396.00
23.93007,-3.180777,398.00
23.96572,-3.180323,400.00
23.99656,-3.180491,402.00
24.03059,-3.180347,404.00
24.06151,-3.181055,406.00
24.09642,-3.181618,408.00
24.12956,-3.182161,410.00
24.16249,-3.182127,412.00
24.19661,-3.182248,414.00
24.22992,-3.182324,416.00
24.26298,-3.182185,418.00
24.29293,-3.181805,420.00
24.32614,-3.181318,422.00
24.35773,-3.181166,424.00
24.39265,-3.180855,426.00
24.42707,-3.181167,428.00
24.45948,-3.181581,430.00
24.49529,-3.182130,432.00
24.52767,-3.182740,434.00
24.56104,-3.182493,436.00
24.59226,-3.182820,438.00
24.62509,-3.182659,440.00
24.65876,-3.182242,442.00
24.68983,-3.181688,444.00
24.72148,-3.181419,446.00
24.75595,-3.181256,448.00
24.78752,-3.181712,450.00
24.81962,-3.182162,452.00
24.85397,-3.181897,454.00
24.88625,-3.181515,456.00
24.91801,-3.181804,458.00
24.95331,-3.181885,460.00
24.98467,-3.181786,462.00
25.01705,-3.181951,464.00
25.04976,-3.181985,466.00
25.08212,-3.181979,468.00
25.11723,-3.181960,470.00
25.15011,-3.182058,472.00
25.18527,-3.182152,474.00
25.21781,-3.182703,476.00
25.24917,-3.182783,478.00
25.28419,-3.182858,480.00
25.31716,-3.183420,482.00
25.34700,-3.184326,484.00
25.38059,-3.184130,486.00
25.41625,-3.184440,488.00
25.44846,-3.184474,490.00
25.48253,-3.184584,492.00
25.51622,-3.184994,494.00
25.54794,-3.185275,496.00
25.58066,-3.185855,498.00
25.61261,-3.186553,500.00
25.64553,-3.187225,502.00
25.67991,-3.188049,504.00
25.71336,-3.188019,506.00
25.74606,-3.188155,508.00
25.77939,-3.188608,510.00
25.80879,-3.188529,512.00
25.84407,-3.188877,514.00
25.87750,-3.189042,516.00
25.91172,-3.189108,518.00
25.94403,-3.189482,520.00
25.97798,-3.190282,522.00
26.01115,-3.191683,524.00
26.04414,-3.192504,526.00
26.07672,-3.193341,528.00
26.10718,-3.193596,530.00
26.14035,-3.193782,532.00
26.17401,-3.194309,534.00
26.20753,-3.194919,536.00
26.23887,-3.195072,538.00
26.27388,-3.196050,540.00
26.30693,-3.196877,542.00
26.34060,-3.197535,544.00
26.37304,-3.198810,546.00
26.40656,-3.200444,548.00
26.44315,-3.202102,550.00
26.47491,-3.203216,552.00
26.50681,-3.203966,554.00
26.53954,-3.205946,556.00
26.57260,-3.207420,558.00
26.60251,-3.208867,560.00
26.63730,-3.210555,562.00
26.66959,-3.212509,564.00
26.70327,-3.214248,566.00
26.73737,-3.215807,568.00
26.77291,-3.217382,570.00
26.80632,-3.219202,572.00
26.83674,-3.221024,574.00
26.86890,-3.222819,576.00
26.90213,-3.225391,578.00
26.93725,-3.228016,580.00
26.97002,-3.230967,582.00
27.00208,-3.234135,584.00
27.03563,-3.237938,586.00
27.06974,-3.242481,588.00
27.10012,-3.247342,590.00
27.13557,-3.252422,592.00
27.16797,-3.257705,594.00
27.20126,-3.263682,596.00
27.23357,-3.270059,598.00
27.26547,-3.277329,600.00
27.29769,-3.284823,602.00
27.33195,-3.294298,604.00
27.36484,-3.304340,606.00
27.39863,-3.315993,608.00
27.43098,-3.329535,610.00
27.46367,-3.345319,612.00
27.49481,-3.364378,614.00
27.53137,-3.386825,616.00
27.56390,-3.413483,618.00
27.59624,-3.445503,620.00
27.62982,-3.484464,622.00
27.66138,-3.532351,624.00
27.69751,-3.591790,626.00
27.72820,-3.666804,628.00
27.76307,-3.764706,630.00
27.79737,-3.892626,632.00
27.83136,-4.061947,634.00
27.86354,-4.280930,636.00
27.89573,-4.548101,638.00
27.92933,-4.843115,640.00
27.96032,-5.174605,642.00
27.99427,-5.547688,644.00
28.02755,-5.938562,646.00
28.06101,-6.351708,648.00
28.09285,-6.789949,650.00
28.12769,-7.182165,652.00
28.16118,-7.300896,654.00
28.19198,-7.057511,656.00
28.22593,-6.575303,658.00
28.25969,-6.042713,660.00
28.29218,-5.556713,662.00
28.32413,-5.139544,664.00
28.36011,-4.790482,666.00
28.39399,-4.500548,668.00
28.42611,-4.261316,670.00
28.45873,-4.064669,672.00
28.49105,-3.902289,674.00
28.52473,-3.768934,676.00
28.55768,-3.659812,678.00
28.59077,-3.570812,680.00
28.62528,-3.497252,682.00
28.65779,-3.437180,684.00
28.69079,-3.387537,686.00
28.72535,-3.346538,688.00
28.75915,-3.313357,690.00
28.78915,-3.285707,692.00
28.82314,-3.263556,694.00
28.85557,-3.245006,696.00
28.88796,-3.229122,698.00
28.92138,-3.216814,700.00
28.95519,-3.206367,702.00
28.98665,-3.197742,704.00
29.01975,-3.190871,706.00
29.05342,-3.186090,708.00
29.08838,-3.182342,710.00
29.12110,-3.179220,712.00
29.15373,-3.177041,714.00
29.18790,-3.176095,716.00
29.22207,-3.175875,718.00
29.25550,-3.176314,720.00
29.28993,-3.176955,722.00
29.32146,-3.178205,724.00
29.35543,-3.179564,726.00
29.38951,-3.179978,728.00
29.42399,-3.179821,730.00
29.45748,-3.179037,732.00
29.48896,-3.176865,734.00
29.52049,-3.174666,736.00
29.55275,-3.172948,738.00
29.58672,-3.171796,740.00
29.61894,-3.170880,742.00
29.65391,-3.169391,744.00
29.68634,-3.168314,746.00
29.71822,-3.167194,748.00
29.75228,-3.166490,750.00
29.78717,-3.165948,752.00
29.81901,-3.164616,754.00
29.85213,-3.164000,756.00
29.88343,-3.162984,758.00
29.91660,-3.162702,760.00
29.94784,-3.162508,762.00
29.97748,-3.162345,764.00
30.00751,-3.161909,766.00
30.04221,-3.161535,768.00
30.07535,-3.161372,770.00
30.10810,-3.161004,772.00
30.14010,-3.160736,774.00
30.17224,-3.160107,776.00
30.20492,-3.159423,778.00
30.23835,-3.158696,780.00
30.27151,-3.159099,782.00
30.30611,-3.159970,784.00
30.34163,-3.159985,786.00
30.37376,-3.160878,788.00
30.40827,-3.160782,790.00
30.43893,-3.160622,792.00
30.47038,-3.160515,794.00
30.50452,-3.160862,796.00
30.53517,-3.160991,798.00
30.56707,-3.160720,800.00
30.59845,-3.160637,802.00
30.63560,-3.160718,804.00
30.66833,-3.160095,806.00
30.69961,-3.159647,808.00
30.73505,-3.159175,810.00
30.77132,-3.158851,812.00
30.80508,-3.158594,814.00
30.83882,-3.158370,816.00
30.87470,-3.158442,818.00
30.90877,-3.158344,820.00
30.94229,-3.158939,822.00
30.97592,-3.159119,824.00
31.00990,-3.158656,826.00
31.04542,-3.159377,828.00
31.07678,-3.160189,830.00
31.10945,-3.160513,832.00
31.14179,-3.160649,834.00
31.17463,-3.160206,836.00
31.20746,-3.159649,838.00
31.24041,-3.159515,840.00
31.27293,-3.159458,842.00
31.30737,-3.159344,844.00
31.34146,-3.158681,846.00
31.37238,-3.158771,848.00
31.40593,-3.157817,850.00
31.43967,-3.157688,852.00
31.47174,-3.157687,854.00
31.50589,-3.157744,856.00
31.53788,-3.157470,858.00
31.56792,-3.157077,860.00
31.60309,-3.156870,862.00
31.63755,-3.157283,864.00
31.66781,-3.157248,866.00
31.69959,-3.157064,868.00
31.73584,-3.157412,870.00
31.76885,-3.157243,872.00
31.80266,-3.157586,874.00
31.83592,-3.157930,876.00
31.86902,-3.158232,878.00
31.90331,-3.158695,880.00
31.93690,-3.158392,882.00
31.97073,-3.158657,884.00
32.00504,-3.158951,886.00
32.03540,-3.158994,888.00
32.06918,-3.158812,890.00
32.10296,-3.158879,892.00
32.13497,-3.158481,894.00
32.16820,-3.157787,896.00
32.20227,-3.158055,898.00
32.23665,-3.158423,900.00
32.26891,-3.158869,902.00
32.30111,-3.159598,904.00
32.33272,-3.159501,906.00
32.36457,-3.159020,908.00
32.39974,-3.158852,910.00
32.43170,-3.158593,912.00
32.46414,-3.158698,914.00
32.49753,-3.157972,916.00
32.53356,-3.156958,918.00
32.56522,-3.156297,920.00
32.59872,-3.156138,922.00
32.63037,-3.155614,924.00
32.66112,-3.156053,926.00
32.69341,-3.156341,928.00
32.72946,-3.156418,930.00
32.76220,-3.156785,932.00
32.79575,-3.157347,934.00
32.82784,-3.157865,936.00
32.86158,-3.158291,938.00
32.89414,-3.158625,940.00
32.92790,-3.158738,942.00
32.96138,-3.159103,944.00
32.99280,-3.159039,946.00
33.02748,-3.159032,948.00
33.05915,-3.158914,950.00
33.09268,-3.158677,952.00
33.12762,-3.158281,954.00
33.15912,-3.157459,956.00
33.19110,-3.157159,958.00
33.22460,-3.156910,960.00
33.25774,-3.156489,962.00
33.29330,-3.156458,964.00
33.32467,-3.156551,966.00
33.35907,-3.156145,968.00
33.39245,-3.156171,970.00
33.42393,-3.157073,972.00
33.46009,-3.157477,974.00
33.49212,-3.158051,976.00
33.52321,-3.158126,978.00
33.55711,-3.158243,980.00
33.59115,-3.158372,982.00
33.62367,-3.158485,984.00
33.65662,-3.158124,986.00
33.69098,-3.158319,988.00
33.72678,-3.158130,990.00
33.75855,-3.157516,992.00
33.79189,-3.156600,994.00
33.82392,-3.156123,996.00
33.85486,-3.155878,998.00
33.88421,-3.155486,1000.00
33.92018,-3.155566,1002.00
33.95459,-3.155335,1004.00
33.98863,-3.155861,1006.00
34.01878,-3.155815,1008.00
34.05285,-3.155806,1010.00
34.08784,-3.155495,1012.00
34.12169,-3.155082,1014.00
34.15354,-3.154958,1016.00
34.18748,-3.155239,1018.00
34.21839,-3.155168,1020.00
34.25107,-3.155542,1022.00
34.28350,-3.155230,1024.00
34.31861,-3.155248,1026.00
34.34952,-3.156086,1028.00
34.38331,-3.156038,1030.00
34.41468,-3.156726,1032.00
34.44763,-3.157026,1034.00
34.48247,-3.157243,1036.00
34.51224,-3.157828,1038.00
34.54519,-3.157855,1040.00
34.57996,-3.158336,1042.00
34.61202,-3.158369,1044.00
34.64515,-3.158437,1046.00
34.67659,-3.158565,1048.00
34.71132,-3.158520,1050.00
34.74395,-3.157921,1052.00
34.77989,-3.157543,1054.00
34.81346,-3.157494,1056.00
34.84721,-3.157076,1058.00
34.87919,-3.156494,1060.00
34.91343,-3.155764,1062.00
34.94533,-3.155760,1064.00
34.97989,-3.156485,1066.00
35.01587,-3.156368,1068.00
35.04712,-3.156045,1070.00
35.07969,-3.155880,1072.00
35.11502,-3.155625,1074.00
35.15053,-3.155782,1076.00
35.18369,-3.156098,1078.00
35.22118,-3.155982,1080.00
35.25353,-3.156256,1082.00
35.28330,-3.155683,1084.00
35.31626,-3.156183,1086.00
35.35179,-3.156262,1088.00
35.38475,-3.156055,1090.00
35.41868,-3.156710,1092.00
35.45114,-3.157559,1094.00
35.48545,-3.156964,1096.00
35.51857,-3.156687,1098.00
35.55170,-3.157158,1100.00
35.58515,-3.157300,1102.00
35.61691,-3.157794,1104.00
35.65252,-3.157536,1106.00
35.68391,-3.157365,1108.00
35.72043,-3.157653,1110.00
35.75146,-3.157517,1112.00
35.78347,-3.156905,1114.00
35.81772,-3.157197,1116.00
35.85238,-3.156397,1118.00
35.88299,-3.156480,1120.00
35.91771,-3.156269,1122.00
35.94934,-3.155833,1124.00
35.98655,-3.156226,1126.00
36.01753,-3.156931,1128.00
36.05247,-3.157466,1130.00
36.08511,-3.157588,1132.00
36.11637,-3.157329,1134.00
36.14984,-3.156966,1136.00
36.18288,-3.156175,1138.00
36.21468,-3.156235,1140.00
36.24753,-3.156447,1142.00
36.27988,-3.157026,1144.00
36.31364,-3.157390,1146.00
36.34450,-3.157610,1148.00
36.37773,-3.157970,1150.00
36.41058,-3.158223,1152.00
36.44140,-3.157886,1154.00
36.47724,-3.157538,1156.00
36.51489,-3.157216,1158.00
36.54857,-3.157096,1160.00
36.58057,-3.156278,1162.00
36.61555,-3.155906,1164.00
36.64707,-3.156216,1166.00
36.68142,-3.156165,1168.00
36.71436,-3.156753,1170.00
36.74688,-3.157000,1172.00
36.77733,-3.156937,1174.00
36.81287,-3.156700,1176.00
36.84491,-3.156920,1178.00
36.87763,-3.157175,1180.00
36.91003,-3.156856,1182.00
36.94305,-3.156255,1184.00
36.97693,-3.156197,1186.00
37.00866,-3.155706,1188.00
37.04218,-3.156243,1190.00
37.07837,-3.156803,1192.00
37.10762,-3.156855,1194.00
37.14053,-3.157001,1196.00
37.17500,-3.157064,1198.00
37.20852,-3.157506,1200.00
37.24034,-3.157227,1202.00
37.27284,-3.156829,1204.00
37.30796,-3.156715,1206.00
37.34172,-3.156649,1208.00
37.37333,-3.156781,1210.00
37.40680,-3.156888,1212.00
37.43991,-3.156955,1214.00
37.47244,-3.157307,1216.00
37.50525,-3.157862,1218.00
37.53656,-3.157942,1220.00
37.56940,-3.158764,1222.00
37.59948,-3.159170,1224.00
37.63513,-3.158923,1226.00
37.67136,-3.159590,1228.00
37.70387,-3.159772,1230.00
37.73532,-3.160219,1232.00
37.76399,-3.159665,1234.00
37.79662,-3.159603,1236.00
37.83030,-3.159747,1238.00
37.86327,-3.159878,1240.00
37.89635,-3.159505,1242.00
37.93061,-3.158868,1244.00
37.96551,-3.158497,1246.00
37.99816,-3.158096,1248.00
38.03048,-3.157577,1250.00
38.06684,-3.157297,1252.00
38.09921,-3.157469,1254.00
38.13519,-3.157664,1256.00
38.16663,-3.157343,1258.00
38.20147,-3.156770,1260.00
38.23578,-3.157066,1262.00
38.27065,-3.156703,1264.00
38.30461,-3.156747,1266.00
38.33706,-3.157622,1268.00
38.36888,-3.158755,1270.00
38.40271,-3.159379,1272.00
38.43676,-3.159936,1274.00
38.47041,-3.159130,1276.00
38.50328,-3.159266,1278.00
38.53679,-3.160339,1280.00
38.57238,-3.160926,1282.00
38.60409,-3.160299,1284.00
38.63631,-3.161241,1286.00
38.66911,-3.161545,1288.00
38.70249,-3.160856,1290.00
38.73820,-3.160947,1292.00
38.77063,-3.160603,1294.00
38.80326,-3.160588,1296.00
38.83985,-3.159951,1298.00
38.87117,-3.159898,1300.00
38.90606,-3.159585,1302.00
38.93997,-3.159187,1304.00
38.97249,-3.159056,1306.00
39.00674,-3.158565,1308.00
39.03837,-3.158381,1310.00
39.07415,-3.158807,1312.00
39.10724,-3.159349,1314.00
39.14033,-3.159844,1316.00
39.17294,-3.159616,1318.00
39.20927,-3.160225,1320.00
39.24158,-3.160313,1322.00
39.27545,-3.160607,1324.00
39.30773,-3.160988,1326.00
39.33903,-3.161424,1328.00
39.37090,-3.161267,1330.00
39.40422,-3.160992,1332.00
39.43928,-3.160438,1334.00
39.47044,-3.159829,1336.00
39.50274,-3.159674,1338.00
39.53552,-3.159797,1340.00
39.56996,-3.159502,1342.00
39.60189,-3.159313,1344.00
39.63707,-3.159344,1346.00
39.66915,-3.159235,1348.00
39.70220,-3.159047,1350.00
39.73582,-3.159289,1352.00
39.76923,-3.159099,1354.00
39.80266,-3.159194,1356.00
39.83595,-3.159437,1358.00
39.87174,-3.159996,1360.00
39.90350,-3.159670,1362.00
39.93557,-3.159995,1364.00
39.96929,-3.160370,1366.00
40.00453,-3.160490,1368.00
40.03886,-3.161153,1370.00
40.07268,-3.161597,1372.00
40.10531,-3.162246,1374.00
40.13673,-3.162413,1376.00
40.17010,-3.162796,1378.00
40.20310,-3.162213,1380.00
40.23686,-3.162817,1382.00
40.26921,-3.162600,1384.00
40.30382,-3.162729,1386.00
40.33552,-3.161905,1388.00
40.36788,-3.161101,1390.00
40.40071,-3.160955,1392.00
40.43586,-3.160328,1394.00
40.47009,-3.160383,1396.00
40.50192,-3.160253,1398.00
40.53345,-3.160513,1400.00
40.56780,-3.160750,1402.00
40.60055,-3.160991,1404.00
40.63502,-3.161302,1406.00
40.66713,-3.161696,1408.00
40.70234,-3.161626,1410.00
40.73638,-3.162826,1412.00
40.76953,-3.163353,1414.00
40.80154,-3.163198,1416.00
40.83644,-3.163495,1418.00
40.86783,-3.163385,1420.00
40.90184,-3.163390,1422.00
40.93570,-3.163100,1424.00
40.97107,-3.163613,1426.00
41.00362,-3.163625,1428.00
41.03681,-3.163759,1430.00
41.07095,-3.163785,1432.00
41.10341,-3.163388,1434.00
41.13653,-3.163031,1436.00
41.16907,-3.162832,1438.00
41.20244,-3.162493,1440.00
41.23333,-3.162891,1442.00
41.26823,-3.162682,1444.00
41.30089,-3.162691,1446.00
41.33354,-3.162447,1448.00
41.36849,-3.162323,1450.00
41.40010,-3.162816,1452.00
41.43492,-3.162917,1454.00
41.46866,-3.163610,1456.00
41.50055,-3.164604,1458.00
41.53248,-3.164744,1460.00
41.56549,-3.165024,1462.00
41.60079,-3.165433,1464.00
41.63205,-3.165543,1466.00
41.66479,-3.165626,1468.00
41.69725,-3.165557,1470.00
41.72901,-3.166057,1472.00
41.76270,-3.166650,1474.00
41.79410,-3.166401,1476.00
41.82700,-3.166100,1478.00
41.86151,-3.165714,1480.00
41.89513,-3.165277,1482.00
41.92908,-3.165164,1484.00
41.96138,-3.165720,1486.00
41.99395,-3.166311,1488.00
42.02724,-3.167033,1490.00
42.06055,-3.166957,1492.00
42.09358,-3.166505,1494.00
42.12591,-3.165816,1496.00
42.15884,-3.165471,1498.00
42.18992,-3.165240,1500.00
42.22564,-3.165077,1502.00
42.25926,-3.165207,1504.00
42.29112,-3.165681,1506.00
42.32375,-3.165555,1508.00
42.35638,-3.165061,1510.00
42.38853,-3.165272,1512.00
42.42232,-3.165030,1514.00
42.45619,-3.165121,1516.00
42.48893,-3.165841,1518.00
42.52241,-3.165457,1520.00
42.55420,-3.165380,1522.00
42.58639,-3.165297,1524.00
42.61745,-3.165051,1526.00
42.65223,-3.164877,1528.00
42.68422,-3.164759,1530.00
42.72048,-3.165120,1532.00
42.75407,-3.166129,1534.00
42.78849,-3.166384,1536.00
42.82132,-3.166576,1538.00
42.85260,-3.166705,1540.00
42.88696,-3.167277,1542.00
42.92116,-3.167907,1544.00
42.95640,-3.168395,1546.00
42.99046,-3.168783,1548.00
43.02015,-3.168716,1550.00
43.05248,-3.168179,1552.00
43.08831,-3.168066,1554.00
43.12046,-3.168250,1556.00
43.15546,-3.167693,1558.00
43.18744,-3.167582,1560.00
43.21893,-3.168000,1562.00
43.25275,-3.168922,1564.00
43.28786,-3.169054,1566.00
43.32113,-3.168612,1568.00
43.35308,-3.168352,1570.00
43.38576,-3.168263,1572.00
43.41844,-3.167917,1574.00
43.45089,-3.167891,1576.00
43.48764,-3.168196,1578.00
43.52104,-3.168706,1580.00
43.55441,-3.168854,1582.00
43.58665,-3.168783,1584.00
43.62138,-3.169111,1586.00
43.65486,-3.169372,1588.00
43.68689,-3.169775,1590.00
43.72161,-3.169720,1592.00
43.75773,-3.169579,1594.00
43.79146,-3.169426,1596.00
43.82371,-3.169202,1598.00
43.85666,-3.169020,1600.00
43.88933,-3.168783,1602.00
43.92231,-3.168342,1604.00
43.95643,-3.168211,1606.00
43.99178,-3.168109,1608.00
44.02229,-3.168994,1610.00
44.05537,-3.169358,1612.00
44.08814,-3.169536,1614.00
44.11874,-3.170086,1616.00
44.15294,-3.170846,1618.00
44.18663,-3.171236,1620.00
44.22083,-3.170795,1622.00
44.25587,-3.171491,1624.00
44.28716,-3.171443,1626.00
44.32064,-3.171972,1628.00
44.35424,-3.172193,1630.00
44.38888,-3.172560,1632.00
44.42396,-3.172236,1634.00
44.45808,-3.172434,1636.00
44.49033,-3.172817,1638.00
44.52394,-3.172882,1640.00
44.55656,-3.172167,1642.00
44.58957,-3.172449,1644.00
44.62231,-3.172786,1646.00
44.65710,-3.172592,1648.00
44.68791,-3.172408,1650.00
44.72181,-3.171972,1652.00
44.75701,-3.172157,1654.00
44.79119,-3.172067,1656.00
44.82475,-3.171877,1658.00
44.85814,-3.171884,1660.00
44.88941,-3.171943,1662.00
44.91935,-3.172133,1664.00
44.95398,-3.173157,1666.00
44.98625,-3.173781,1668.00
45.01712,-3.173456,1670.00
45.04971,-3.173202,1672.00
45.08361,-3.173701,1674.00
45.11760,-3.174257,1676.00
45.15199,-3.174718,1678.00
45.18520,-3.174703,1680.00
45.22053,-3.174842,1682.00
45.25373,-3.174577,1684.00
45.28717,-3.174130,1686.00
45.32257,-3.174257,1688.00
45.35510,-3.174292,1690.00
45.38882,-3.174627,1692.00
45.42510,-3.175255,1694.00
45.45673,-3.175239,1696.00
45.48909,-3.175724,1698.00
45.51903,-3.176372,1700.00
45.55438,-3.176408,1702.00
45.58633,-3.176807,1704.00
45.61992,-3.177506,1706.00
45.65586,-3.178369,1708.00
45.69049,-3.178769,1710.00
45.72474,-3.179082,1712.00
45.75656,-3.179306,1714.00
45.79071,-3.179300,1716.00
45.82182,-3.179749,1718.00
45.85713,-3.179202,1720.00
45.88785,-3.179315,1722.00
45.92034,-3.179574,1724.00
45.95595,-3.179759,1726.00
45.98887,-3.179826,1728.00
46.02203,-3.179660,1730.00
46.05424,-3.179433,1732.00
46.08508,-3.179221,1734.00
46.11909,-3.179548,1736.00
46.14993,-3.179282,1738.00
46.18476,-3.178728,1740.00
46.21564,-3.178425,1742.00
46.24533,-3.178284,1744.00
46.28059,-3.177695,1746.00
46.31690,-3.177888,1748.00
46.34705,-3.178732,1750.00
46.37966,-3.179654,1752.00
46.41319,-3.179802,1754.00
46.44713,-3.180343,1756.00
46.47853,-3.180697,1758.00
46.51147,-3.180535,1760.00
46.54625,-3.181430,1762.00
46.57764,-3.182158,1764.00
46.61146,-3.181900,1766.00
46.64884,-3.181955,1768.00
46.68353,-3.182203,1770.00
46.71625,-3.182809,1772.00
46.74859,-3.183564,1774.00
46.78198,-3.183851,1776.00
46.81195,-3.184216,1778.00
46.84624,-3.183488,1780.00
46.87964,-3.183280,1782.00
46.91038,-3.183512,1784.00
46.94568,-3.183341,1786.00
46.97994,-3.183361,1788.00
47.01247,-3.183619,1790.00
47.04283,-3.184148,1792.00
47.07504,-3.185013,1794.00
47.10752,-3.185748,1796.00
47.13915,-3.185576,1798.00
47.17384,-3.185622,1800.00
47.20399,-3.185144,1802.00
47.23767,-3.185040,1804.00
47.26903,-3.184654,1806.00
47.30247,-3.184369,1808.00
47.33537,-3.184187,1810.00
47.36953,-3.184144,1812.00
47.40582,-3.184010,1814.00
47.43750,-3.183870,1816.00
47.46995,-3.183422,1818.00
47.50261,-3.183919,1820.00
47.53606,-3.183654,1822.00
47.57232,-3.183395,1824.00
47.60382,-3.183028,1826.00
47.63941,-3.183424,1828.00
47.67496,-3.184033,1830.00
47.71110,-3.184332,1832.00
47.74461,-3.184801,1834.00
47.77985,-3.185218,1836.00
47.81052,-3.186105,1838.00
47.84421,-3.186497,1840.00
47.87677,-3.187230,1842.00
47.91103,-3.188035,1844.00
47.94503,-3.188958,1846.00
47.97568,-3.189065,1848.00
48.00994,-3.189002,1850.00
48.04093,-3.189119,1852.00
48.07268,-3.188719,1854.00
48.10394,-3.188868,1856.00
48.13890,-3.189066,1858.00
48.17245,-3.188950,1860.00
48.20759,-3.188812,1862.00
48.23930,-3.189290,1864.00
48.27114,-3.189094,1866.00
48.30270,-3.189356,1868.00
48.33551,-3.189715,1870.00
48.36980,-3.190523,1872.00
48.40086,-3.190203,1874.00
48.43487,-3.190451,1876.00
48.46556,-3.191697,1878.00
48.49825,-3.191293,1880.00
48.53142,-3.191209,1882.00
48.56703,-3.191832,1884.00
48.59801,-3.191608,1886.00
48.63293,-3.192019,1888.00
48.66614,-3.191730,1890.00
48.69868,-3.192091,1892.00
48.73097,-3.192531,1894.00
48.76444,-3.192691,1896.00
48.79741,-3.193007,1898.00
48.83211,-3.193065,1900.00
48.86420,-3.193267,1902.00
48.89640,-3.193816,1904.00
48.93004,-3.194719,1906.00
48.96478,-3.195338,1908.00
48.99772,-3.195033,1910.00
49.03028,-3.195071,1912.00
49.06335,-3.195315,1914.00
49.09464,-3.195542,1916.00
49.12796,-3.195718,1918.00
49.16327,-3.195813,1920.00
49.19418,-3.196096,1922.00
49.22666,-3.195829,1924.00
49.25926,-3.195440,1926.00
49.29440,-3.194814,1928.00
49.32713,-3.194500,1930.00
49.36008,-3.193899,1932.00
49.38925,-3.193799,1934.00
49.42413,-3.193972,1936.00
49.45744,-3.194178,1938.00
49.48858,-3.195098,1940.00
49.51872,-3.195363,1942.00
49.55580,-3.195395,1944.00
49.59164,-3.195672,1946.00
49.62494,-3.196138,1948.00
49.65579,-3.196649,1950.00
49.68820,-3.196560,1952.00
49.72192,-3.196961,1954.00
49.75406,-3.198011,1956.00
49.78511,-3.198745,1958.00
49.81814,-3.199277,1960.00
49.85371,-3.199987,1962.00
49.88396,-3.199994,1964.00
49.91690,-3.200191,1966.00
49.94821,-3.200185,1968.00
49.98109,-3.200298,1970.00
50.01307,-3.199993,1972.00
50.04594,-3.200421,1974.00
50.07720,-3.200843,1976.00
50.11052,-3.201311,1978.00
50.14526,-3.200960,1980.00
50.17813,-3.201513,1982.00
50.21047,-3.201834,1984.00
50.24287,-3.201391,1986.00
50.27975,-3.201158,1988.00
50.31200,-3.201547,1990.00
50.34668,-3.201654,1992.00
50.38149,-3.201814,1994.00
50.41390,-3.202425,1996.00
50.45003,-3.203018,1998.00
50.48356,-3.202403,2000.00
50.51510,-3.202219,2002.00
50.54956,-3.202201,2004.00
50.58284,-3.202398,2006.00
50.61680,-3.202136,2008.00
50.64939,-3.201981,2010.00
50.68275,-3.201612,2012.00
50.71741,-3.201801,2014.00
50.74950,-3.202606,2016.00
50.78249,-3.202470,2018.00
50.81458,-3.202592,2020.00
50.84825,-3.202603,2022.00
50.88063,-3.202527,2024.00
50.91353,-3.202799,2026.00
50.94626,-3.203430,2028.00
50.97951,-3.203501,2030.00
51.00951,-3.203628,2032.00
51.04333,-3.203855,2034.00
51.07485,-3.204174,2036.00
51.10704,-3.205257,2038.00
51.14120,-3.205352,2040.00
51.17471,-3.205532,2042.00
51.20805,-3.206213,2044.00
51.24009,-3.206302,2046.00
51.27212,-3.207191,2048.00
51.30361,-3.208249,2050.00
51.33733,-3.208561,2052.00
51.36965,-3.208889,2054.00
51.40299,-3.209499,2056.00
51.43650,-3.209796,2058.00
51.47010,-3.210321,2060.00
51.50352,-3.210422,2062.00
51.53684,-3.210480,2064.00
51.57027,-3.210763,2066.00
51.60237,-3.210716,2068.00
51.63459,-3.210669,2070.00
51.67101,-3.211241,2072.00
51.70521,-3.211412,2074.00
51.73705,-3.211513,2076.00
51.76942,-3.210949,2078.00
51.80458,-3.210904,2080.00
51.83597,-3.211030,2082.00
51.87056,-3.210965,2084.00
51.90382,-3.211313,2086.00
51.93422,-3.211523,2088.00
51.96780,-3.212173,2090.00
52.00081,-3.212995,2092.00
52.03713,-3.213314,2094.00
52.07012,-3.213912,2096.00
52.10290,-3.214241,2098.00
52.13528,-3.214398,2100.00
52.17060,-3.214215,2102.00
52.20145,-3.213776,2104.00
52.23311,-3.213904,2106.00
52.26634,-3.213431,2108.00
52.29923,-3.213804,2110.00
52.33243,-3.214123,2112.00
52.36630,-3.214569,2114.00
52.39873,-3.214256,2116.00
52.43110,-3.213916,2118.00
52.46435,-3.213924,2120.00
52.49811,-3.214411,2122.00
52.53190,-3.214862,2124.00
52.56424,-3.214887,2126.00
52.59846,-3.215370,2128.00
52.63080,-3.214973,2130.00
52.66674,-3.215579,2132.00
52.69788,-3.216571,2134.00
52.73112,-3.216681,2136.00
52.76456,-3.216727,2138.00
52.79709,-3.217230,2140.00
52.83186,-3.218370,2142.00
52.86371,-3.218710,2144.00
52.89617,-3.219550,2146.00
52.92736,-3.220193,2148.00
52.96241,-3.220715,2150.00
52.99564,-3.221213,2152.00
53.02692,-3.221714,2154.00
53.06035,-3.222254,2156.00
53.09315,-3.222146,2158.00
53.12671,-3.222647,2160.00
53.15890,-3.223187,2162.00
53.18917,-3.223060,2164.00
53.22318,-3.223116,2166.00
53.25688,-3.223478,2168.00
53.28938,-3.223255,2170.00
53.32464,-3.223039,2172.00
53.35981,-3.223819,2174.00
53.38998,-3.223829,2176.00
53.42226,-3.223836,2178.00
53.45232,-3.223804,2180.00
53.48795,-3.223567,2182.00
53.52063,-3.223103,2184.00
53.55099,-3.223075,2186.00
53.58647,-3.223087,2188.00
53.61825,-3.223535,2190.00
53.65298,-3.224343,2192.00
53.68621,-3.225078,2194.00
53.71727,-3.225272,2196.00
53.75146,-3.225417,2198.00
53.78270,-3.225965,2200.00
53.81675,-3.226381,2202.00
53.84752,-3.226790,2204.00
53.87848,-3.226950,2206.00
53.91257,-3.227054,2208.00
53.94682,-3.226928,2210.00
53.97938,-3.226660,2212.00
54.01425,-3.226822,2214.00
54.04924,-3.227006,2216.00
54.08110,-3.227253,2218.00
54.11584,-3.227418,2220.00
54.14861,-3.227630,2222.00
54.18072,-3.227759,2224.00
54.21379,-3.227716,2226.00
54.24849,-3.228050,2228.00
54.28138,-3.229010,2230.00
54.31605,-3.230086,2232.00
54.35084,-3.230877,2234.00
54.38707,-3.231307,2236.00
54.41674,-3.231627,2238.00
54.44934,-3.232380,2240.00
54.48102,-3.232691,2242.00
54.51570,-3.233522,2244.00
54.54622,-3.233737,2246.00
54.58054,-3.234209,2248.00
54.61217,-3.233544,2250.00
54.64337,-3.232663,2252.00
54.67622,-3.232625,2254.00
54.71397,-3.233178,2256.00
54.74574,-3.232940,2258.00
54.77622,-3.233401,2260.00
54.80877,-3.233179,2262.00
54.84130,-3.232838,2264.00
54.87338,-3.233735,2266.00
54.90684,-3.233947,2268.00
54.93708,-3.234240,2270.00
54.97081,-3.234611,2272.00
55.00355,-3.234798,2274.00
55.03817,-3.235167,2276.00
55.07212,-3.236291,2278.00
55.10442,-3.236691,2280.00
55.13815,-3.237227,2282.00
55.17138,-3.238092,2284.00
55.20350,-3.238619,2286.00
55.24037,-3.238979,2288.00
55.27095,-3.239331,2290.00
55.30426,-3.239393,2292.00
55.33893,-3.239240,2294.00
55.37397,-3.238242,2296.00
55.40592,-3.238562,2298.00
55.44021,-3.238557,2300.00
55.47489,-3.239155,2302.00
55.50773,-3.239140,2304.00
55.54178,-3.239447,2306.00
55.57410,-3.239575,2308.00
55.60715,-3.239669,2310.00
55.63918,-3.240613,2312.00
55.67388,-3.241128,2314.00
55.70697,-3.241578,2316.00
55.74050,-3.241855,2318.00
55.77379,-3.242178,2320.00
55.80865,-3.242878,2322.00
55.84090,-3.243614,2324.00
55.87314,-3.244274,2326.00
55.90388,-3.245152,2328.00
55.93928,-3.244813,2330.00
55.97201,-3.245674,2332.00
56.00330,-3.246313,2334.00
56.03685,-3.246850,2336.00
56.07112,-3.247452,2338.00
56.10250,-3.247591,2340.00
56.13507,-3.248005,2342.00
56.17018,-3.248473,2344.00
56.20419,-3.248998,2346.00
56.23604,-3.248560,2348.00
56.26948,-3.248066,2350.00
56.30200,-3.247683,2352.00
56.33558,-3.247567,2354.00
56.36933,-3.247848,2356.00
56.40228,-3.247564,2358.00
56.43484,-3.247881,2360.00
56.46666,-3.247941,2362.00
56.50189,-3.248248,2364.00
56.53527,-3.248325,2366.00
56.56622,-3.248875,2368.00
56.60085,-3.249333,2370.00
56.63223,-3.249459,2372.00
56.66849,-3.249572,2374.00
56.70011,-3.249969,2376.00
56.73478,-3.250365,2378.00
56.76719,-3.250973,2380.00
56.80169,-3.252010,2382.00
56.83307,-3.252687,2384.00
56.86641,-3.252714,2386.00
56.90208,-3.253468,2388.00
56.93566,-3.253525,2390.00
56.96854,-3.254158,2392.00
57.00194,-3.254801,2394.00
57.03501,-3.255140,2396.00
57.06619,-3.255640,2398.00
57.09944,-3.255658,2400.00
57.13300,-3.255727,2402.00
57.16398,-3.255743,2404.00
57.19941,-3.256644,2406.00
57.23365,-3.257530,2408.00
57.26797,-3.258591,2410.00
57.29869,-3.259831,2412.00
57.33108,-3.260838,2414.00
57.36391,-3.261065,2416.00
57.39723,-3.261186,2418.00
57.42811,-3.261786,2420.00
57.46234,-3.262288,2422.00
57.49724,-3.263703,2424.00
57.52810,-3.264497,2426.00
57.56065,-3.265068,2428.00
57.59358,-3.264948,2430.00
57.62961,-3.264532,2432.00
57.66451,-3.264449,2434.00
57.69783,-3.264446,2436.00
57.72901,-3.264786,2438.00
57.76227,-3.265056,2440.00
57.79442,-3.265573,2442.00
57.82772,-3.266149,2444.00
57.85829,-3.266604,2446.00
57.88951,-3.266458,2448.00
57.92312,-3.266579,2450.00
57.95616,-3.267401,2452.00
57.99041,-3.268247,2454.00
58.02332,-3.269245,2456.00
58.05491,-3.269989,2458.00
58.08986,-3.270544,2460.00
58.12477,-3.271549,2462.00
58.15437,-3.272626,2464.00
58.18984,-3.273049,2466.00
58.22220,-3.273790,2468.00
58.25677,-3.274221,2470.00
58.29099,-3.274321,2472.00
58.32211,-3.274387,2474.00
58.35686,-3.274369,2476.00
58.39090,-3.274397,2478.00
58.42183,-3.275042,2480.00
58.45522,-3.275576,2482.00
58.49014,-3.276033,2484.00
58.52323,-3.276675,2486.00
58.55485,-3.276565,2488.00
58.59077,-3.276434,2490.00
58.62365,-3.275722,2492.00
58.65436,-3.275780,2494.00
58.68548,-3.276174,2496.00
58.71989,-3.277218,2498.00
58.75049,-3.277891,2500.00
58.78465,-3.278833,2502.00
58.81700,-3.279574,2504.00
58.85123,-3.280065,2506.00
58.88247,-3.281075,2508.00
58.91608,-3.281345,2510.00
58.94856,-3.281784,2512.00
58.98251,-3.282628,2514.00
59.01484,-3.282624,2516.00
59.04645,-3.282917,2518.00
59.08256,-3.283384,2520.00
59.11572,-3.283190,2522.00
59.14552,-3.282663,2524.00
59.18273,-3.282833,2526.00
59.21729,-3.283028,2528.00
59.25117,-3.283448,2530.00
59.28323,-3.284207,2532.00
59.31896,-3.285127,2534.00
59.35455,-3.286329,2536.00
59.39144,-3.286145,2538.00
59.42252,-3.286510,2540.00
59.45680,-3.287705,2542.00
59.49094,-3.288053,2544.00
59.52630,-3.289271,2546.00
59.55795,-3.288634,2548.00
59.59219,-3.288599,2550.00
59.62392,-3.289895,2552.00
59.65751,-3.291600,2554.00
59.69239,-3.293215,2556.00
59.72586,-3.292763,2558.00
59.75964,-3.293351,2560.00
59.79324,-3.293437,2562.00
59.82774,-3.294467,2564.00
59.86134,-3.294877,2566.00
59.89598,-3.295027,2568.00
59.92796,-3.295453,2570.00
59.96415,-3.295965,2572.00
59.99624,-3.296470,2574.00
60.02886,-3.297050,2576.00
60.06452,-3.297428,2578.00
60.09614,-3.297973,2580.00
60.12880,-3.298132,2582.00
60.16193,-3.298501,2584.00
60.19269,-3.298914,2586.00
60.22809,-3.299224,2588.00
60.26153,-3.298902,2590.00
60.29684,-3.298974,2592.00
60.32934,-3.298934,2594.00
60.36268,-3.298891,2596.00
60.39646,-3.298941,2598.00
60.43122,-3.299773,2600.00
60.46224,-3.300528,2602.00
60.49501,-3.301868,2604.00
60.53090,-3.303095,2606.00
60.56544,-3.303794,2608.00
60.59773,-3.304056,2610.00
60.63115,-3.304714,2612.00
60.66749,-3.305139,2614.00
60.69904,-3.305487,2616.00
60.73321,-3.305941,2618.00
60.76567,-3.306328,2620.00
60.79713,-3.306271,2622.00
60.83078,-3.306222,2624.00
60.86704,-3.306320,2626.00
60.89942,-3.306802,2628.00
60.93030,-3.307509,2630.00
60.96573,-3.308191,2632.00
61.00078,-3.308406,2634.00
61.03191,-3.308343,2636.00
61.06451,-3.308524,2638.00
61.09908,-3.308670,2640.00
61.13464,-3.308910,2642.00
61.16733,-3.309241,2644.00
61.20005,-3.310205,2646.00
61.23225,-3.311745,2648.00
61.26304,-3.312131,2650.00
61.29496,-3.312650,2652.00
61.32875,-3.313507,2654.00
61.36218,-3.314383,2656.00
61.39531,-3.315544,2658.00
61.43109,-3.316419,2660.00
61.46225,-3.317588,2662.00
61.49587,-3.318614,2664.00
61.52930,-3.320049,2666.00
61.56158,-3.320470,2668.00
61.59620,-3.321390,2670.00
61.62831,-3.321504,2672.00
61.65883,-3.322004,2674.00
61.69152,-3.322252,2676.00
61.72682,-3.321914,2678.00
61.76294,-3.323110,2680.00
61.79354,-3.324106,2682.00
61.82791,-3.324649,2684.00
61.86019,-3.325097,2686.00
61.89339,-3.325783,2688.00
61.92756,-3.325894,2690.00
61.95981,-3.326470,2692.00
61.99363,-3.327144,2694.00
62.02460,-3.326811,2696.00
62.05823,-3.327253,2698.00
62.09259,-3.327804,2700.00
62.12759,-3.328965,2702.00
62.16033,-3.329982,2704.00
62.19264,-3.330660,2706.00
62.22766,-3.331902,2708.00
62.25847,-3.332716,2710.00
62.29184,-3.333644,2712.00
62.32471,-3.334435,2714.00
62.35807,-3.334899,2716.00
62.39004,-3.335814,2718.00
62.42198,-3.336235,2720.00
62.45514,-3.336894,2722.00
62.49141,-3.337704,2724.00
62.52549,-3.339007,2726.00
62.55738,-3.340523,2728.00
62.59206,-3.342025,2730.00
62.62708,-3.342810,2732.00
62.65887,-3.343394,2734.00
62.69145,-3.344240,2736.00
62.72556,-3.344735,2738.00
62.75800,-3.344915,2740.00
62.79213,-3.345377,2742.00
62.82355,-3.346191,2744.00
62.85754,-3.346810,2746.00
62.88940,-3.347557,2748.00
62.92354,-3.347927,2750.00
62.95575,-3.348141,2752.00
62.98927,-3.348523,2754.00
63.02211,-3.348690,2756.00
63.05336,-3.348905,2758.00
63.08910,-3.350020,2760.00
63.12139,-3.350634,2762.00
63.15391,-3.351474,2764.00
63.18804,-3.352166,2766.00
63.22108,-3.352978,2768.00
63.25788,-3.353972,2770.00
63.29108,-3.354905,2772.00
63.32331,-3.355371,2774.00
63.35764,-3.355671,2776.00
63.39221,-3.356081,2778.00
63.42436,-3.356407,2780.00
63.45687,-3.357751,2782.00
63.48896,-3.358132,2784.00
63.52328,-3.358422,2786.00
63.55771,-3.359082,2788.00
63.58997,-3.359492,2790.00
63.62507,-3.360103,2792.00
63.66099,-3.360293,2794.00
63.69388,-3.360792,2796.00
63.72432,-3.361416,2798.00
63.75937,-3.362443,2800.00
63.79402,-3.363322,2802.00
63.82661,-3.364379,2804.00
63.86025,-3.364958,2806.00
63.89247,-3.365488,2808.00
63.92769,-3.366459,2810.00
63.96047,-3.367239,2812.00
63.99353,-3.368038,2814.00
64.02658,-3.369115,2816.00
64.05958,-3.370066,2818.00
64.09238,-3.370816,2820.00
64.12530,-3.371396,2822.00
64.15882,-3.371596,2824.00
64.19233,-3.372350,2826.00
64.22504,-3.372863,2828.00
64.25801,-3.373156,2830.00
64.29134,-3.373593,2832.00
64.32696,-3.373949,2834.00
64.35966,-3.374444,2836.00
64.39358,-3.375361,2838.00
64.42590,-3.376486,2840.00
64.45948,-3.377335,2842.00
64.49106,-3.378494,2844.00
64.52396,-3.380424,2846.00
64.55582,-3.381225,2848.00
64.59204,-3.381678,2850.00
64.62521,-3.382140,2852.00
64.65588,-3.383287,2854.00
64.68964,-3.383994,2856.00
64.72321,-3.384727,2858.00
64.75684,-3.385715,2860.00
64.79020,-3.386867,2862.00
64.82284,-3.387738,2864.00
64.85495,-3.389072,2866.00
64.88864,-3.390502,2868.00
64.92146,-3.391599,2870.00
64.95174,-3.392342,2872.00
64.98569,-3.392781,2874.00
65.02041,-3.394015,2876.00
65.05249,-3.395148,2878.00
65.08626,-3.396117,2880.00
65.12027,-3.397217,2882.00
65.15076,-3.397591,2884.00
65.18135,-3.398120,2886.00
65.21461,-3.398550,2888.00
65.25018,-3.399227,2890.00
65.28182,-3.400171,2892.00
65.31528,-3.400710,2894.00
65.35175,-3.401029,2896.00
65.38474,-3.401154,2898.00
65.41799,-3.401411,2900.00
65.45000,-3.401912,2902.00
65.48185,-3.402571,2904.00
65.51418,-3.404126,2906.00
65.54867,-3.406282,2908.00
65.58116,-3.407557,2910.00
65.61504,-3.409215,2912.00
65.64850,-3.410181,2914.00
65.68004,-3.410399,2916.00
65.71264,-3.411526,2918.00
65.74557,-3.412377,2920.00
65.77828,-3.412870,2922.00
65.81276,-3.413755,2924.00
65.84808,-3.414382,2926.00
65.88016,-3.415168,2928.00
65.91212,-3.415552,2930.00
65.94635,-3.416224,2932.00
65.97889,-3.416918,2934.00
66.00986,-3.417518,2936.00
66.04424,-3.419139,2938.00
66.07693,-3.419985,2940.00
66.10916,-3.420815,2942.00
66.14273,-3.422004,2944.00
66.17709,-3.423336,2946.00
66.21045,-3.424181,2948.00
66.24185,-3.425093,2950.00
66.27589,-3.426366,2952.00
66.30791,-3.427103,2954.00
66.34048,-3.428368,2956.00
66.37136,-3.429633,2958.00
66.40722,-3.431115,2960.00
66.44200,-3.431770,2962.00
66.47372,-3.432966,2964.00
66.50851,-3.433963,2966.00
66.54362,-3.435522,2968.00
66.57499,-3.436834,2970.00
66.60735,-3.436541,2972.00
66.64140,-3.436416,2974.00
66.67702,-3.436889,2976.00
66.70987,-3.437827,2978.00
66.74026,-3.439020,2980.00
66.77700,-3.439799,2982.00
66.80923,-3.440625,2984.00
66.84099,-3.441462,2986.00
66.87406,-3.442562,2988.00
66.90911,-3.443167,2990.00
66.94377,-3.443389,2992.00
66.97671,-3.443919,2994.00
67.00946,-3.445000,2996.00
67.04441,-3.445842,2998.00
67.07823,-3.446753,3000.00
67.10976,-3.447756,3002.00
67.14560,-3.448839,3004.00
67.17782,-3.449208,3006.00
67.20948,-3.449734,3008.00
67.24343,-3.450600,3010.00
67.27415,-3.451397,3012.00
67.30628,-3.451889,3014.00
67.33892,-3.453140,3016.00
67.37498,-3.454202,3018.00
67.40928,-3.454629,3020.00
67.44079,-3.455340,3022.00
67.47512,-3.455565,3024.00
67.50890,-3.456311,3026.00
67.53944,-3.457372,3028.00
67.57321,-3.458707,3030.00
67.60816,-3.459981,3032.00
67.64262,-3.461350,3034.00
67.67431,-3.463091,3036.00
67.70768,-3.464253,3038.00
67.73886,-3.465587,3040.00
67.77284,-3.467149,3042.00
67.80663,-3.468201,3044.00
67.84027,-3.469712,3046.00
67.87360,-3.471197,3048.00
67.90711,-3.471906,3050.00
67.93911,-3.473065,3052.00
67.97309,-3.473705,3054.00
68.00521,-3.473813,3056.00
68.03698,-3.474257,3058.00
68.06862,-3.474975,3060.00
68.10102,-3.475777,3062.00
68.13265,-3.477330,3064.00
68.16418,-3.478355,3066.00
68.19927,-3.479443,3068.00
68.23557,-3.480074,3070.00
68.26849,-3.480339,3072.00
68.30310,-3.481103,3074.00
68.33471,-3.481529,3076.00
68.36893,-3.482629,3078.00
68.40178,-3.484092,3080.00
68.43704,-3.485718,3082.00
68.46848,-3.487468,3084.00
68.50395,-3.488742,3086.00
68.53645,-3.490382,3088.00
68.57067,-3.491345,3090.00
68.60342,-3.492260,3092.00
68.63289,-3.493160,3094.00
68.66664,-3.494247,3096.00
68.69999,-3.495071,3098.00
68.73380,-3.495845,3100.00
68.76729,-3.496616,3102.00
68.80009,-3.496923,3104.00
68.83365,-3.497810,3106.00
68.86548,-3.499079,3108.00
68.90023,-3.499893,3110.00
68.93482,-3.500564,3112.00
68.96736,-3.501162,3114.00
68.99855,-3.502313,3116.00
69.03097,-3.503754,3118.00
69.06438,-3.504695,3120.00
69.09905,-3.505936,3122.00
69.12884,-3.506901,3124.00
69.16273,-3.508413,3126.00
69.19599,-3.509624,3128.00
69.22794,-3.510592,3130.00
69.26204,-3.511564,3132.00
69.29525,-3.512215,3134.00
69.32970,-3.513395,3136.00
69.36164,-3.513146,3138.00
69.39604,-3.514243,3140.00
69.42907,-3.515937,3142.00
69.46088,-3.516950,3144.00
69.49582,-3.518055,3146.00
69.52853,-3.519058,3148.00
69.56395,-3.520299,3150.00
69.59557,-3.521815,3152.00
69.62801,-3.522118,3154.00
69.66216,-3.523315,3156.00
69.69674,-3.524915,3158.00
69.72793,-3.525896,3160.00
69.76318,-3.527301,3162.00
69.79640,-3.528455,3164.00
69.82735,-3.529154,3166.00
69.86285,-3.529578,3168.00
69.89313,-3.530095,3170.00
69.92834,-3.531107,3172.00
69.96059,-3.531841,3174.00
69.99310,-3.533137,3176.00
70.02801,-3.533709,3178.00
70.05965,-3.534432,3180.00
70.09441,-3.534437,3182.00
70.12760,-3.534978,3184.00
70.15951,-3.536018,3186.00
70.19483,-3.536818,3188.00
70.22932,-3.537627,3190.00
70.26129,-3.538423,3192.00
70.29322,-3.539902,3194.00
70.32877,-3.541041,3196.00
70.36258,-3.543072,3198.00
70.39586,-3.543389,3200.00
70.42854,-3.543695,3202.00
70.45937,-3.544921,3204.00
70.49334,-3.546630,3206.00
70.52554,-3.548229,3208.00
70.55901,-3.549419,3210.00
70.59269,-3.551517,3212.00
70.62641,-3.553382,3214.00
70.65929,-3.554680,3216.00
70.69180,-3.555814,3218.00
70.72600,-3.556689,3220.00
70.75960,-3.557048,3222.00
70.79352,-3.558812,3224.00
70.82638,-3.560181,3226.00
70.85900,-3.560805,3228.00
70.89227,-3.562026,3230.00
70.92626,-3.562717,3232.00
70.96092,-3.562969,3234.00
70.99576,-3.564401,3236.00
71.02713,-3.565856,3238.00
71.05852,-3.566767,3240.00
71.09414,-3.567649,3242.00
71.12727,-3.568180,3244.00
71.16082,-3.569372,3246.00
71.19505,-3.570162,3248.00
71.22968,-3.571157,3250.00
71.26208,-3.571598,3252.00
71.29430,-3.571946,3254.00
71.32762,-3.573599,3256.00
71.35845,-3.575307,3258.00
71.39362,-3.576278,3260.00
71.42715,-3.576682,3262.00
71.46135,-3.578107,3264.00
71.49307,-3.579197,3266.00
71.52657,-3.580270,3268.00
71.55781,-3.581764,3270.00
71.59278,-3.583055,3272.00
71.62308,-3.584297,3274.00
71.65580,-3.584847,3276.00
71.69183,-3.585183,3278.00
71.72544,-3.586762,3280.00
71.75911,-3.589130,3282.00
71.79291,-3.591086,3284.00
71.82767,-3.592932,3286.00
71.86071,-3.594494,3288.00
71.89474,-3.594654,3290.00
71.92737,-3.594918,3292.00
71.96144,-3.596205,3294.00
71.99338,-3.597024,3296.00
72.02550,-3.597674,3298.00
72.05918,-3.598477,3300.00
72.09190,-3.599773,3302.00
72.12606,-3.600660,3304.00
72.15762,-3.600634,3306.00
72.19033,-3.600792,3308.00
72.22160,-3.600911,3310.00
72.25838,-3.601571,3312.00
72.29092,-3.601944,3314.00
72.32323,-3.602693,3316.00
72.35769,-3.603506,3318.00
72.38954,-3.604271,3320.00
72.42174,-3.605404,3322.00
72.45631,-3.606255,3324.00
72.49277,-3.606471,3326.00
72.52442,-3.606677,3328.00
72.55668,-3.606375,3330.00
72.58778,-3.606276,3332.00
72.62190,-3.605529,3334.00
72.65556,-3.605761,3336.00
72.68825,-3.606296,3338.00
72.72105,-3.605787,3340.00
72.75522,-3.605495,3342.00
72.78758,-3.605440,3344.00
72.82196,-3.604262,3346.00
72.85423,-3.603095,3348.00
72.88774,-3.601404,3350.00
72.91941,-3.599449,3352.00
72.95541,-3.596958,3354.00
72.98938,-3.593363,3356.00
73.02112,-3.589339,3358.00
73.05238,-3.585190,3360.00
73.08032,-3.579031,3362.00
73.11805,-3.570530,3364.00
73.15105,-3.559197,3366.00
73.18183,-3.543727,3368.00
73.21521,-3.522026,3370.00
73.25161,-3.491355,3372.00
73.28584,-3.447571,3374.00
73.31747,-3.384882,3376.00
73.34969,-3.295816,3378.00
73.38465,-3.168558,3380.00
73.41475,-2.984331,3382.00
73.44857,-2.709857,3384.00
73.48281,-2.292445,3386.00
73.51758,-1.666204,3388.00
73.55075,-0.790019,3390.00
73.58263,0.258391,3392.00
73.61362,1.068990,3394.00
73.64772,1.191460,3396.00
73.68090,0.724674,3398.00
73.71385,-0.008640,3400.00
73.74738,-0.733048,3402.00
73.78218,-1.339898,3404.00
73.81590,-1.821609,3406.00
73.84944,-2.200843,3408.00
73.87921,-2.501062,3410.00
73.91153,-2.739088,3412.00
73.94580,-2.928353,3414.00
73.97805,-3.079453,3416.00
74.01123,-3.201020,3418.00
74.04269,-3.298423,3420.00
74.07507,-3.377110,3422.00
74.10883,-3.439620,3424.00
74.14006,-3.489697,3426.00
74.17289,-3.529348,3428.00
74.20586,-3.560291,3430.00
74.23556,-3.584419,3432.00
74.27010,-3.604498,3434.00
74.30371,-3.621070,3436.00
74.33641,-3.633754,3438.00
74.36755,-3.644337,3440.00
74.40012,-3.652691,3442.00
74.43516,-3.658822,3444.00
74.46808,-3.663324,3446.00
74.50177,-3.667167,3448.00
74.53423,-3.670010,3450.00
74.56732,-3.672597,3452.00
74.59992,-3.674694,3454.00
74.63310,-3.675045,3456.00
74.66298,-3.675019,3458.00
74.69757,-3.674684,3460.00
74.72945,-3.673824,3462.00
74.76022,-3.670586,3464.00
74.79312,-3.668502,3466.00
74.82691,-3.665894,3468.00
74.86008,-3.663341,3470.00
74.89421,-3.659891,3472.00
74.92693,-3.654593,3474.00
74.96024,-3.648665,3476.00
74.99391,-3.641197,3478.00
75.02723,-3.632567,3480.00
75.06210,-3.623353,3482.00
75.09442,-3.611810,3484.00
75.12531,-3.598323,3486.00
75.15757,-3.583254,3488.00
75.19188,-3.565297,3490.00
75.22633,-3.543458,3492.00
75.25695,-3.516678,3494.00
75.29124,-3.484686,3496.00
75.32360,-3.446010,3498.00
75.35566,-3.398464,3500.00
75.38977,-3.338218,3502.00
75.42328,-3.262793,3504.00
75.45951,-3.165356,3506.00
75.49222,-3.036052,3508.00
75.52089,-2.861001,3510.00
75.55471,-2.616666,3512.00
75.58804,-2.265687,3514.00
75.62135,-1.741014,3516.00
75.65407,-0.929426,3518.00
75.68650,0.324400,3520.00
75.71780,2.089053,3522.00
75.75125,4.427127,3524.00
75.78478,7.282607,3526.00
75.81673,9.857776,3528.00
75.84957,10.354274,3530.00
75.88373,8.711976,3532.00
75.91646,6.280534,3534.00
75.94990,4.137027,3536.00
75.98205,2.478951,3538.00
76.01619,1.196237,3540.00
76.04851,0.190667,3542.00
76.08286,-0.607540,3544.00
76.11621,-1.252261,3546.00
76.15045,-1.775999,3548.00
76.18430,-2.199626,3550.00
76.21632,-2.541162,3552.00
76.24980,-2.815589,3554.00
76.28235,-3.034741,3556.00
76.31478,-3.211298,3558.00
76.35094,-3.353343,3560.00
76.38362,-3.467562,3562.00
76.41616,-3.559192,3564.00
76.44846,-3.631979,3566.00
76.48285,-3.691026,3568.00
76.51600,-3.738159,3570.00
76.54873,-3.775617,3572.00
76.58319,-3.806069,3574.00
76.61567,-3.831045,3576.00
76.65179,-3.851208,3578.00
76.68259,-3.867758,3580.00
76.71725,-3.881675,3582.00
76.75012,-3.892702,3584.00
76.78287,-3.903094,3586.00
76.81389,-3.911674,3588.00
76.84796,-3.918638,3590.00
76.87993,-3.925389,3592.00
76.91486,-3.931867,3594.00
76.94901,-3.937752,3596.00
76.98132,-3.942616,3598.00
77.01501,-3.947525,3600.00
77.04926,-3.951343,3602.00
77.08111,-3.954417,3604.00
77.11642,-3.957187,3606.00
77.14902,-3.960267,3608.00
77.18275,-3.963170,3610.00
77.21628,-3.966315,3612.00
77.24878,-3.969888,3614.00
77.28364,-3.972017,3616.00
77.31897,-3.973373,3618.00
77.35369,-3.976470,3620.00
77.38626,-3.980119,3622.00
77.41962,-3.982925,3624.00
77.45156,-3.985048,3626.00
77.48418,-3.987112,3628.00
77.51720,-3.989813,3630.00
77.54905,-3.993017,3632.00
77.58521,-3.995401,3634.00
77.61844,-3.998046,3636.00
77.65285,-4.001042,3638.00
77.68590,-4.003647,3640.00
77.71620,-4.006821,3642.00
77.74936,-4.009078,3644.00
77.78238,-4.011629,3646.00
77.81737,-4.013330,3648.00
77.84905,-4.015954,3650.00
77.88139,-4.018493,3652.00
77.91615,-4.021364,3654.00
77.94908,-4.024381,3656.00
77.98098,-4.028371,3658.00
78.01325,-4.030977,3660.00
78.04882,-4.033552,3662.00
78.08397,-4.035439,3664.00
78.11821,-4.036943,3666.00
78.14936,-4.037266,3668.00
78.18254,-4.037254,3670.00
78.21616,-4.038660,3672.00
78.24669,-4.039508,3674.00
78.28117,-4.040358,3676.00
78.31627,-4.042679,3678.00
78.34993,-4.046383,3680.00
78.38075,-4.051902,3682.00
78.41321,-4.057741,3684.00
78.44694,-4.062295,3686.00
78.48103,-4.067424,3688.00
78.51486,-4.071568,3690.00
78.54820,-4.075898,3692.00
78.57965,-4.079257,3694.00
78.61167,-4.082808,3696.00
78.64562,-4.086486,3698.00
78.67951,-4.090637,3700.00
78.71149,-4.094454,3702.00
78.74396,-4.097812,3704.00
78.77608,-4.100899,3706.00
78.81116,-4.104203,3708.00
78.84600,-4.107427,3710.00
78.88031,-4.110084,3712.00
78.91108,-4.113245,3714.00
78.94410,-4.116209,3716.00
78.97871,-4.119094,3718.00
79.01279,-4.121959,3720.00
79.04771,-4.124873,3722.00
79.07902,-4.127625,3724.00
79.11106,-4.130653,3726.00
79.14422,-4.133916,3728.00
79.17739,-4.137226,3730.00
79.21105,-4.140771,3732.00
79.24365,-4.143842,3734.00
79.27858,-4.146486,3736.00
79.31070,-4.150064,3738.00
79.34561,-4.154219,3740.00
79.37898,-4.158002,3742.00
79.41068,-4.161497,3744.00
79.44341,-4.165683,3746.00
79.47630,-4.168530,3748.00
79.51006,-4.171686,3750.00
79.54231,-4.174697,3752.00
79.57645,-4.178116,3754.00
79.60921,-4.182062,3756.00
79.64255,-4.186096,3758.00
79.67475,-4.189145,3760.00
79.70814,-4.191778,3762.00
79.74104,-4.195424,3764.00
79.77436,-4.198775,3766.00
79.80792,-4.201674,3768.00
79.84307,-4.204890,3770.00
79.87525,-4.208044,3772.00
79.90880,-4.211301,3774.00
79.94114,-4.214380,3776.00
79.97585,-4.217494,3778.00

