$DSC2
$Conventional
$Adiabatic Mode
$Scanrate Corrected-Programmed
$Baseline Subtraction Method: 0 File: NONE
$DP Corrected
$RTD Corrected
$MidGain FB,  0.75 
$ADCGainCode:  0 
$ 10 
$NOT
$ 10 
$ 0            20            25           False
$ 0 
$ 15           80            60            5             0             2             2             0 
$ 15           80            60            5             0             2             2             0 
$ 15           80            60            5             0             2             2             0 
$ 15           80            60            5             0             2             2             0 
$ 15           80            60            5             0             2             2             0 
$ 15           80            60            5             0             2             2             0 
$ 15           80            60            5             0             2             2             0 
$ 15           80            60            5             0             2             2             0 
$ 15           80            60            5             0             2             2             0 
$ 15           80            60            5             0             2             2             0 
# 0 
# 0.5197
# 0
# 11.63 
# 0.75 
# 10.743 
? 
% VPDSC02.06.462
% 0.51971 
% 11.63 
%-0.995356 , 100.17434 
% 3.676 
% 250 ,       -22.5 
% 1000.3 , 1000.3 
% 0.88219 ,-0.02026 
%-0.08266 , 0.02515 
% 1 , 0.055 
% 0.0522 
% 1 , 130 
% 0.080433 , 0.056504 
% 0 , 8 
% 0 , 18 
% 0.072589046661 ,-0.003235099108 , 8.240903228419E-06 , 2.357972384211E-07 ,-7.440723641986E-10 
% VPViewer2000 Ver: 1.4.14
@9
17.40460,-3.209688,2.00
17.43795,-3.209404,4.00
17.47127,-3.209077,6.00
17.50208,-3.208649,8.00
17.53501,-3.208656,10.00
17.56582,-3.208116,12.00
17.59740,-3.207662,14.00
17.63242,-3.207571,16.00
17.66794,-3.207463,18.00
17.69790,-3.208022,20.00
17.73238,-3.208022,22.00
17.76437,-3.208323,24.00
17.79436,-3.208587,26.00
17.83050,-3.208403,28.00
17.86232,-3.207853,30.00
17.89543,-3.207569,32.00
17.92753,-3.206948,34.00
17.96109,-3.206603,36.00
17.99280,-3.206530,38.00
18.02660,-3.206697,40.00
18.05795,-3.207341,42.00
18.08954,-3.207468,44.00
18.12183,-3.207592,46.00
18.15337,-3.207555,48.00
18.18567,-3.207387,50.00
18.21875,-3.206948,52.00
18.25123,-3.206625,54.00
18.28415,-3.206600,56.00
18.31319,-3.206348,58.00
18.34435,-3.206382,60.00
18.37903,-3.206490,62.00
18.41009,-3.206521,64.00
18.44412,-3.206764,66.00
18.47566,-3.207046,68.00
18.50749,-3.206871,70.00
18.53929,-3.206720,72.00
18.57424,-3.206537,74.00
18.60919,-3.206569,76.00
18.64301,-3.206159,78.00
18.67258,-3.206006,80.00
18.70556,-3.205602,82.00
18.74050,-3.206052,84.00
18.77176,-3.206046,86.00
18.80298,-3.205861,88.00
18.83547,-3.205806,90.00
18.86781,-3.205577,92.00
18.89983,-3.205630,94.00
18.93272,-3.204854,96.00
18.96498,-3.204763,98.00
18.99747,-3.205086,100.00
19.03128,-3.204576,102.00
19.06451,-3.204654,104.00
19.09608,-3.205051,106.00
19.12716,-3.204249,108.00
19.16010,-3.203393,110.00
19.19401,-3.202887,112.00
19.22877,-3.202604,114.00
19.26106,-3.202500,116.00
19.29289,-3.202853,118.00
19.32431,-3.202677,120.00
19.35869,-3.203151,122.00
19.39063,-3.203385,124.00
19.42358,-3.203312,126.00
19.45602,-3.203206,128.00
19.49175,-3.202974,130.00
19.52586,-3.203267,132.00
19.56144,-3.202638,134.00
19.59261,-3.201489,136.00
19.62160,-3.201397,138.00
19.65279,-3.201406,140.00
19.68613,-3.201808,142.00
19.71972,-3.201860,144.00
19.75430,-3.202140,146.00
19.78563,-3.201667,148.00
19.81711,-3.201709,150.00
19.85138,-3.202242,152.00
19.88258,-3.202742,154.00
19.91523,-3.202574,156.00
19.94864,-3.202545,158.00
19.97880,-3.203049,160.00
20.01048,-3.202870,162.00
20.04131,-3.202300,164.00
20.07528,-3.201006,166.00
20.10983,-3.200455,168.00
20.14376,-3.200656,170.00
20.17509,-3.200127,172.00
20.20999,-3.200192,174.00
20.24117,-3.200604,176.00
20.27337,-3.200889,178.00
20.30979,-3.201658,180.00
20.34272,-3.201946,182.00
20.37511,-3.200921,184.00
20.40750,-3.200484,186.00
20.44084,-3.200267,188.00
20.47308,-3.200467,190.00
20.50562,-3.200724,192.00
20.53742,-3.200683,194.00
20.57357,-3.200686,196.00
20.60636,-3.200965,198.00
20.63664,-3.201303,200.00
20.66821,-3.201149,202.00
20.70219,-3.200438,204.00
20.73354,-3.200026,206.00
20.76622,-3.199843,208.00
20.80033,-3.200008,210.00
20.83473,-3.200147,212.00
20.86628,-3.199896,214.00
20.89810,-3.199572,216.00
20.93356,-3.199563,218.00
20.96255,-3.199142,220.00
20.99731,-3.198598,222.00
21.03113,-3.198388,224.00
21.06439,-3.198603,226.00
21.09755,-3.198785,228.00
21.13154,-3.198770,230.00
21.16229,-3.198810,232.00
21.19369,-3.198900,234.00
21.22917,-3.198460,236.00
21.26054,-3.197942,238.00
21.29445,-3.197373,240.00
21.32881,-3.196670,242.00
21.36209,-3.196405,244.00
21.39451,-3.196307,246.00
21.42663,-3.197090,248.00
21.46056,-3.197099,250.00
21.49572,-3.197090,252.00
21.53001,-3.197271,254.00
21.56145,-3.197277,256.00
21.59354,-3.197585,258.00
21.62469,-3.197971,260.00
21.65906,-3.197951,262.00
21.69117,-3.197679,264.00
21.72435,-3.197226,266.00
21.75839,-3.196457,268.00
21.79305,-3.196276,270.00
21.82695,-3.196227,272.00
21.85925,-3.196580,274.00
21.89249,-3.196627,276.00
21.92492,-3.197151,278.00
21.95868,-3.197619,280.00
21.99015,-3.197031,282.00
22.02205,-3.196270,284.00
22.05633,-3.195939,286.00
22.09250,-3.196069,288.00
22.12597,-3.195826,290.00
22.15927,-3.195727,292.00
22.18831,-3.196071,294.00
22.21893,-3.196812,296.00
22.25150,-3.197098,298.00
22.28578,-3.197246,300.00
22.32000,-3.196433,302.00
22.35303,-3.196639,304.00
22.38596,-3.196441,306.00
22.42008,-3.196984,308.00
22.45140,-3.197029,310.00
22.48275,-3.197229,312.00
22.51569,-3.197428,314.00
22.54919,-3.197194,316.00
22.58319,-3.196580,318.00
22.61609,-3.195989,320.00
22.64986,-3.195338,322.00
22.68306,-3.194702,324.00
22.71683,-3.195171,326.00
22.75022,-3.195584,328.00
22.78370,-3.196187,330.00
22.81669,-3.196737,332.00
22.85058,-3.196828,334.00
22.88361,-3.196418,336.00
22.91516,-3.196276,338.00
22.95108,-3.196119,340.00
22.98533,-3.195196,342.00
23.01598,-3.194828,344.00
23.04933,-3.194817,346.00
23.08291,-3.194979,348.00
23.11445,-3.195598,350.00
23.14596,-3.195529,352.00
23.17987,-3.195369,354.00
23.21232,-3.195250,356.00
23.24409,-3.195638,358.00
23.27646,-3.195918,360.00
23.31041,-3.195932,362.00
23.34517,-3.196300,364.00
23.37613,-3.195708,366.00
23.40808,-3.196055,368.00
23.44195,-3.195420,370.00
23.47476,-3.195046,372.00
23.50691,-3.195108,374.00
23.54218,-3.195636,376.00
23.57463,-3.195903,378.00
23.60694,-3.195950,380.00
23.64211,-3.195910,382.00
23.67468,-3.196055,384.00
23.70272,-3.195620,386.00
23.73879,-3.195588,388.00
23.77223,-3.195261,390.00
23.80743,-3.195200,392.00
23.84018,-3.195090,394.00
23.87157,-3.195289,396.00
23.90424,-3.195525,398.00
23.93901,-3.196090,400.00
23.97093,-3.195943,402.00
24.00371,-3.195788,404.00
24.03869,-3.195787,406.00
24.07318,-3.196228,408.00
24.10367,-3.195601,410.00
24.13577,-3.195715,412.00
24.17025,-3.195222,414.00
24.20513,-3.195137,416.00
24.23766,-3.195385,418.00
24.27143,-3.195990,420.00
24.30362,-3.196259,422.00
24.33578,-3.196318,424.00
24.37013,-3.196524,426.00
24.40396,-3.196553,428.00
24.43565,-3.195964,430.00
24.46934,-3.196171,432.00
24.50173,-3.196384,434.00
24.53505,-3.196078,436.00
24.56988,-3.195882,438.00
24.60099,-3.195570,440.00
24.63241,-3.196002,442.00
24.66691,-3.196205,444.00
24.70065,-3.195739,446.00
24.73500,-3.196285,448.00
24.76667,-3.196570,450.00
24.80052,-3.196970,452.00
24.83394,-3.197418,454.00
24.86725,-3.197775,456.00
24.90072,-3.197789,458.00
24.93251,-3.197532,460.00
24.96475,-3.198076,462.00
24.99833,-3.198324,464.00
25.03373,-3.198695,466.00
25.06747,-3.198494,468.00
25.09878,-3.197790,470.00
25.13186,-3.197541,472.00
25.16563,-3.197641,474.00
25.19951,-3.197805,476.00
25.23226,-3.197468,478.00
25.26475,-3.197855,480.00
25.30064,-3.198247,482.00
25.33354,-3.198677,484.00
25.36391,-3.198796,486.00
25.39666,-3.198814,488.00
25.43153,-3.198557,490.00
25.46571,-3.198262,492.00
25.49799,-3.198895,494.00
25.52956,-3.199433,496.00
25.56435,-3.199567,498.00
25.59898,-3.200327,500.00
25.63066,-3.200851,502.00
25.66248,-3.201322,504.00
25.69359,-3.201608,506.00
25.72953,-3.202151,508.00
25.76323,-3.202377,510.00
25.79782,-3.201728,512.00
25.83028,-3.202519,514.00
25.86311,-3.202955,516.00
25.89590,-3.203568,518.00
25.93078,-3.204480,520.00
25.96433,-3.205115,522.00
25.99693,-3.205771,524.00
26.03009,-3.206590,526.00
26.06356,-3.207343,528.00
26.09434,-3.207359,530.00
26.12405,-3.207531,532.00
26.15663,-3.208134,534.00
26.18959,-3.209023,536.00
26.22623,-3.210175,538.00
26.25859,-3.210754,540.00
26.29068,-3.211216,542.00
26.32360,-3.212429,544.00
26.35567,-3.213401,546.00
26.39061,-3.214536,548.00
26.42450,-3.215267,550.00
26.45856,-3.215471,552.00
26.49101,-3.216292,554.00
26.52320,-3.217444,556.00
26.55617,-3.218678,558.00
26.58862,-3.219639,560.00
26.62132,-3.220916,562.00
26.65725,-3.222518,564.00
26.68953,-3.224128,566.00
26.72191,-3.225779,568.00
26.75536,-3.228289,570.00
26.79182,-3.230726,572.00
26.82620,-3.233131,574.00
26.85710,-3.235656,576.00
26.88978,-3.237834,578.00
26.92514,-3.240405,580.00
26.95736,-3.243281,582.00
26.98909,-3.246115,584.00
27.02163,-3.249580,586.00
27.05379,-3.253836,588.00
27.08851,-3.257708,590.00
27.12210,-3.262016,592.00
27.15238,-3.266717,594.00
27.18700,-3.272049,596.00
27.22030,-3.277633,598.00
27.25423,-3.283472,600.00
27.28670,-3.290574,602.00
27.31922,-3.299233,604.00
27.35329,-3.308644,606.00
27.38410,-3.318743,608.00
27.41951,-3.331240,610.00
27.45191,-3.345881,612.00
27.48419,-3.362915,614.00
27.51731,-3.382899,616.00
27.54987,-3.406363,618.00
27.58437,-3.434322,620.00
27.61560,-3.467647,622.00
27.64896,-3.509187,624.00
27.68036,-3.560517,626.00
27.71419,-3.624626,628.00
27.74665,-3.707774,630.00
27.78152,-3.816995,632.00
27.81310,-3.960252,634.00
27.84572,-4.149696,636.00
27.87813,-4.389553,638.00
27.91467,-4.663167,640.00
27.94427,-4.963477,642.00
27.97778,-5.305901,644.00
28.01217,-5.669551,646.00
28.04696,-6.035084,648.00
28.07832,-6.410033,650.00
28.11239,-6.789390,652.00
28.14369,-7.041730,654.00
28.17878,-6.983296,656.00
28.21346,-6.624077,658.00
28.24651,-6.125661,660.00
28.27875,-5.640573,662.00
28.31101,-5.216106,664.00
28.34262,-4.857226,666.00
28.37655,-4.559919,668.00
28.41158,-4.313242,670.00
28.44212,-4.109576,672.00
28.47647,-3.942627,674.00
28.51067,-3.804876,676.00
28.54125,-3.691089,678.00
28.57242,-3.599133,680.00
28.60664,-3.522609,682.00
28.64012,-3.459784,684.00
28.67360,-3.408263,686.00
28.70877,-3.365127,688.00
28.73949,-3.330501,690.00
28.77568,-3.302596,692.00
28.81080,-3.280170,694.00
28.84522,-3.261910,696.00
28.87933,-3.246414,698.00
28.91212,-3.233849,700.00
28.94414,-3.223715,702.00
28.97716,-3.215667,704.00
29.01058,-3.208626,706.00
29.04445,-3.202029,708.00
29.07432,-3.196511,710.00
29.10786,-3.192159,712.00
29.14230,-3.189842,714.00
29.17475,-3.188191,716.00
29.20891,-3.187617,718.00
29.24072,-3.188226,720.00
29.27201,-3.189640,722.00
29.30769,-3.190892,724.00
29.34061,-3.192654,726.00
29.37148,-3.194283,728.00
29.40428,-3.194776,730.00
29.43911,-3.194414,732.00
29.47260,-3.192481,734.00
29.50591,-3.189967,736.00
29.53726,-3.187891,738.00
29.57169,-3.186182,740.00
29.60202,-3.184664,742.00
29.63469,-3.183004,744.00
29.66973,-3.182072,746.00
29.70378,-3.181241,748.00
29.73497,-3.180379,750.00
29.76844,-3.179242,752.00
29.80306,-3.178971,754.00
29.83588,-3.178055,756.00
29.86919,-3.177184,758.00
29.90083,-3.177039,760.00
29.93327,-3.176606,762.00
29.96260,-3.175748,764.00
29.99160,-3.174983,766.00
30.02328,-3.174542,768.00
30.05733,-3.174122,770.00
30.08825,-3.173960,772.00
30.12087,-3.174291,774.00
30.15673,-3.174304,776.00
30.18862,-3.174527,778.00
30.22289,-3.174360,780.00
30.25657,-3.174172,782.00
30.28901,-3.174078,784.00
30.32356,-3.173934,786.00
30.35498,-3.173850,788.00
30.38679,-3.173945,790.00
30.41957,-3.174110,792.00
30.45365,-3.174440,794.00
30.48635,-3.174659,796.00
30.51887,-3.174895,798.00
30.54901,-3.174745,800.00
30.58268,-3.174022,802.00
30.61940,-3.173496,804.00
30.65135,-3.172866,806.00
30.68532,-3.172326,808.00
30.72423,-3.172588,810.00
30.75651,-3.172829,812.00
30.78661,-3.172861,814.00
30.82046,-3.173490,816.00
30.85465,-3.174293,818.00
30.88456,-3.174664,820.00
30.92039,-3.174895,822.00
30.95417,-3.174629,824.00
30.98941,-3.174313,826.00
31.02334,-3.174056,828.00
31.05551,-3.173850,830.00
31.08836,-3.173643,832.00
31.12170,-3.172935,834.00
31.15393,-3.172382,836.00
31.18611,-3.172171,838.00
31.21840,-3.172480,840.00
31.25136,-3.173121,842.00
31.28300,-3.173815,844.00
31.31679,-3.173751,846.00
31.34972,-3.173728,848.00
31.38248,-3.173818,850.00
31.41506,-3.173629,852.00
31.44759,-3.173518,854.00
31.48098,-3.173844,856.00
31.51345,-3.173747,858.00
31.54833,-3.173821,860.00
31.58194,-3.172769,862.00
31.61550,-3.172811,864.00
31.64871,-3.173170,866.00
31.68281,-3.173303,868.00
31.71708,-3.172806,870.00
31.74981,-3.172689,872.00
31.78287,-3.172586,874.00
31.81453,-3.172025,876.00
31.84620,-3.172139,878.00
31.87985,-3.172398,880.00
31.91428,-3.171877,882.00
31.94526,-3.172198,884.00
31.97948,-3.171788,886.00
32.01364,-3.172710,888.00
32.04599,-3.173072,890.00
32.07869,-3.173001,892.00
32.11291,-3.173247,894.00
32.14435,-3.173450,896.00
32.17858,-3.173354,898.00
32.21176,-3.173184,900.00
32.24529,-3.172590,902.00
32.27809,-3.172136,904.00
32.31105,-3.171985,906.00
32.34601,-3.171760,908.00
32.37651,-3.171224,910.00
32.41042,-3.171020,912.00
32.44224,-3.170945,914.00
32.47601,-3.170720,916.00
32.50946,-3.170695,918.00
32.54427,-3.170517,920.00
32.57787,-3.170818,922.00
32.60871,-3.171149,924.00
32.64057,-3.171998,926.00
32.67576,-3.172595,928.00
32.70756,-3.172824,930.00
32.74061,-3.172933,932.00
32.77522,-3.173276,934.00
32.81057,-3.173199,936.00
32.84057,-3.173034,938.00
32.87287,-3.172439,940.00
32.90775,-3.172097,942.00
32.93810,-3.171574,944.00
32.97111,-3.171549,946.00
33.00549,-3.171214,948.00
33.03782,-3.171464,950.00
33.07067,-3.172270,952.00
33.10258,-3.172473,954.00
33.13658,-3.172430,956.00
33.16856,-3.172430,958.00
33.20206,-3.171779,960.00
33.23481,-3.172040,962.00
33.26865,-3.171999,964.00
33.30039,-3.171875,966.00
33.33406,-3.171226,968.00
33.36971,-3.171038,970.00
33.40467,-3.170566,972.00
33.43761,-3.170285,974.00
33.47070,-3.171215,976.00
33.50493,-3.171501,978.00
33.53957,-3.171999,980.00
33.57114,-3.172359,982.00
33.60247,-3.171385,984.00
33.63825,-3.171075,986.00
33.67058,-3.171826,988.00
33.70206,-3.172446,990.00
33.73590,-3.172196,992.00
33.76996,-3.171205,994.00
33.80159,-3.170936,996.00
33.83544,-3.170268,998.00
33.86687,-3.170288,1000.00
33.89665,-3.169949,1002.00
33.93177,-3.170633,1004.00
33.96510,-3.171289,1006.00
33.99828,-3.171620,1008.00
34.03053,-3.171569,1010.00
34.06391,-3.171504,1012.00
34.09697,-3.171351,1014.00
34.13159,-3.171164,1016.00
34.16474,-3.170971,1018.00
34.19735,-3.171061,1020.00
34.22941,-3.171056,1022.00
34.26050,-3.171019,1024.00
34.29169,-3.170540,1026.00
34.32564,-3.170443,1028.00
34.36137,-3.170501,1030.00
34.39192,-3.170808,1032.00
34.42427,-3.170906,1034.00
34.45771,-3.171045,1036.00
34.49225,-3.171627,1038.00
34.52710,-3.172596,1040.00
34.56139,-3.172450,1042.00
34.59267,-3.172236,1044.00
34.62541,-3.172124,1046.00
34.65780,-3.172036,1048.00
34.69004,-3.171589,1050.00
34.72298,-3.170536,1052.00
34.75847,-3.170111,1054.00
34.79471,-3.170382,1056.00
34.82716,-3.170048,1058.00
34.86333,-3.169921,1060.00
34.89559,-3.169820,1062.00
34.93045,-3.170305,1064.00
34.96301,-3.170735,1066.00
34.99622,-3.171066,1068.00
35.02967,-3.170834,1070.00
35.06113,-3.170912,1072.00
35.09284,-3.171284,1074.00
35.12464,-3.171792,1076.00
35.15818,-3.171889,1078.00
35.19229,-3.172161,1080.00
35.22297,-3.172162,1082.00
35.25600,-3.172581,1084.00
35.28976,-3.172242,1086.00
35.32332,-3.171615,1088.00
35.35630,-3.171168,1090.00
35.39044,-3.170988,1092.00
35.42026,-3.170858,1094.00
35.45410,-3.170957,1096.00
35.48831,-3.171422,1098.00
35.52295,-3.171316,1100.00
35.55388,-3.171658,1102.00
35.58891,-3.171873,1104.00
35.62219,-3.171824,1106.00
35.65466,-3.172270,1108.00
35.68669,-3.172383,1110.00
35.71924,-3.172028,1112.00
35.75304,-3.171704,1114.00
35.78542,-3.171222,1116.00
35.81903,-3.170655,1118.00
35.85041,-3.170814,1120.00
35.88574,-3.171243,1122.00
35.91954,-3.170648,1124.00
35.95454,-3.170726,1126.00
35.98669,-3.171692,1128.00
36.01945,-3.172119,1130.00
36.05170,-3.171745,1132.00
36.08555,-3.171992,1134.00
36.11669,-3.172285,1136.00
36.15048,-3.171931,1138.00
36.18363,-3.171790,1140.00
36.21582,-3.171609,1142.00
36.24741,-3.171260,1144.00
36.27923,-3.171339,1146.00
36.31559,-3.171280,1148.00
36.34706,-3.171504,1150.00
36.38064,-3.171928,1152.00
36.41427,-3.172448,1154.00
36.44903,-3.172655,1156.00
36.48142,-3.172995,1158.00
36.51356,-3.173271,1160.00
36.54813,-3.173207,1162.00
36.58077,-3.173262,1164.00
36.61570,-3.173298,1166.00
36.64875,-3.173135,1168.00
36.68447,-3.172319,1170.00
36.71761,-3.172406,1172.00
36.74947,-3.172880,1174.00
36.78497,-3.172801,1176.00
36.81600,-3.172878,1178.00
36.84838,-3.172737,1180.00
36.88314,-3.172802,1182.00
36.91970,-3.172696,1184.00
36.95138,-3.172481,1186.00
36.98419,-3.172135,1188.00
37.01801,-3.171940,1190.00
37.05105,-3.171803,1192.00
37.08352,-3.171727,1194.00
37.11690,-3.171721,1196.00
37.15208,-3.171932,1198.00
37.18449,-3.172384,1200.00
37.21528,-3.172549,1202.00
37.24968,-3.172565,1204.00
37.28039,-3.173195,1206.00
37.31678,-3.172722,1208.00
37.34613,-3.172267,1210.00
37.38216,-3.172400,1212.00
37.41316,-3.172668,1214.00
37.44681,-3.173455,1216.00
37.48113,-3.173848,1218.00
37.51441,-3.173981,1220.00
37.54941,-3.173710,1222.00
37.58143,-3.173297,1224.00
37.61286,-3.173278,1226.00
37.64432,-3.173286,1228.00
37.67970,-3.172673,1230.00
37.71183,-3.172183,1232.00
37.74523,-3.172255,1234.00
37.77596,-3.172061,1236.00
37.80851,-3.172271,1238.00
37.84460,-3.172834,1240.00
37.87891,-3.173226,1242.00
37.91135,-3.173926,1244.00
37.94558,-3.173976,1246.00
37.98195,-3.174477,1248.00
38.01373,-3.174487,1250.00
38.04964,-3.174131,1252.00
38.08089,-3.173961,1254.00
38.11286,-3.173982,1256.00
38.14591,-3.173345,1258.00
38.18097,-3.172830,1260.00
38.21569,-3.172826,1262.00
38.24918,-3.172920,1264.00
38.28155,-3.173202,1266.00
38.31390,-3.173596,1268.00
38.34845,-3.173440,1270.00
38.38071,-3.173856,1272.00
38.41636,-3.173687,1274.00
38.44788,-3.173972,1276.00
38.48284,-3.174252,1278.00
38.51625,-3.173890,1280.00
38.55038,-3.173256,1282.00
38.58336,-3.173550,1284.00
38.61901,-3.173146,1286.00
38.65228,-3.173043,1288.00
38.68407,-3.173589,1290.00
38.71649,-3.173736,1292.00
38.75081,-3.173604,1294.00
38.78463,-3.173896,1296.00
38.81615,-3.174524,1298.00
38.84969,-3.175061,1300.00
38.88498,-3.175062,1302.00
38.91910,-3.175279,1304.00
38.95158,-3.175416,1306.00
38.98632,-3.175302,1308.00
39.01982,-3.174811,1310.00
39.05386,-3.174916,1312.00
39.08954,-3.175141,1314.00
39.11958,-3.174944,1316.00
39.15277,-3.174887,1318.00
39.18703,-3.174347,1320.00
39.21824,-3.174593,1322.00
39.25121,-3.174683,1324.00
39.28228,-3.175223,1326.00
39.31339,-3.175254,1328.00
39.34744,-3.175390,1330.00
39.37959,-3.175868,1332.00
39.41446,-3.175337,1334.00
39.44627,-3.175226,1336.00
39.48090,-3.174576,1338.00
39.51315,-3.174776,1340.00
39.54665,-3.174929,1342.00
39.57864,-3.174186,1344.00
39.61194,-3.174494,1346.00
39.64532,-3.174360,1348.00
39.67851,-3.175159,1350.00
39.71412,-3.175958,1352.00
39.74772,-3.176316,1354.00
39.78143,-3.176467,1356.00
39.81519,-3.176841,1358.00
39.84910,-3.176662,1360.00
39.88115,-3.176896,1362.00
39.91328,-3.177230,1364.00
39.94529,-3.177120,1366.00
39.97629,-3.177045,1368.00
40.01245,-3.176427,1370.00
40.04776,-3.175639,1372.00
40.07895,-3.175917,1374.00
40.11115,-3.175982,1376.00
40.14389,-3.176570,1378.00
40.17846,-3.176634,1380.00
40.21211,-3.176886,1382.00
40.24430,-3.176803,1384.00
40.27760,-3.176543,1386.00
40.31170,-3.176696,1388.00
40.34708,-3.176512,1390.00
40.38085,-3.176214,1392.00
40.41395,-3.176358,1394.00
40.44815,-3.176317,1396.00
40.48012,-3.176209,1398.00
40.51535,-3.176373,1400.00
40.54539,-3.176315,1402.00
40.57894,-3.175930,1404.00
40.61346,-3.176163,1406.00
40.64741,-3.177097,1408.00
40.68196,-3.177451,1410.00
40.71666,-3.177369,1412.00
40.74745,-3.177938,1414.00
40.78217,-3.178411,1416.00
40.81442,-3.178319,1418.00
40.84903,-3.178468,1420.00
40.88170,-3.178231,1422.00
40.91392,-3.177956,1424.00
40.94586,-3.178203,1426.00
40.98049,-3.178377,1428.00
41.01161,-3.178010,1430.00
41.04696,-3.177973,1432.00
41.08073,-3.177741,1434.00
41.11607,-3.177441,1436.00
41.14752,-3.177676,1438.00
41.18064,-3.177952,1440.00
41.21605,-3.178643,1442.00
41.25159,-3.179327,1444.00
41.28334,-3.179512,1446.00
41.31603,-3.179847,1448.00
41.34904,-3.179940,1450.00
41.38058,-3.179871,1452.00
41.41324,-3.179487,1454.00
41.44747,-3.179287,1456.00
41.48194,-3.179173,1458.00
41.51765,-3.179470,1460.00
41.54981,-3.179314,1462.00
41.58236,-3.178965,1464.00
41.61448,-3.178892,1466.00
41.64686,-3.178776,1468.00
41.67637,-3.178900,1470.00
41.71024,-3.179210,1472.00
41.74367,-3.179441,1474.00
41.77662,-3.179961,1476.00
41.80948,-3.180554,1478.00
41.84142,-3.180454,1480.00
41.87640,-3.180180,1482.00
41.91023,-3.179976,1484.00
41.94628,-3.180154,1486.00
41.98003,-3.180840,1488.00
42.01440,-3.181049,1490.00
42.04884,-3.181711,1492.00
42.08364,-3.182336,1494.00
42.11501,-3.182184,1496.00
42.14921,-3.182901,1498.00
42.18344,-3.182896,1500.00
42.21484,-3.182992,1502.00
42.24800,-3.182870,1504.00
42.27970,-3.182476,1506.00
42.31415,-3.182279,1508.00
42.34933,-3.182646,1510.00
42.37955,-3.182591,1512.00
42.41166,-3.182683,1514.00
42.44566,-3.182624,1516.00
42.47882,-3.182750,1518.00
42.51172,-3.182535,1520.00
42.54756,-3.182726,1522.00
42.57586,-3.182516,1524.00
42.61062,-3.181860,1526.00
42.64336,-3.181684,1528.00
42.67617,-3.182296,1530.00
42.70893,-3.182512,1532.00
42.74288,-3.182916,1534.00
42.77712,-3.183119,1536.00
42.80958,-3.183513,1538.00
42.84348,-3.184561,1540.00
42.87605,-3.184547,1542.00
42.90805,-3.184836,1544.00
42.94338,-3.184914,1546.00
42.97829,-3.185042,1548.00
43.00889,-3.184992,1550.00
43.04176,-3.184424,1552.00
43.07616,-3.184314,1554.00
43.10950,-3.183557,1556.00
43.14204,-3.183162,1558.00
43.17475,-3.183288,1560.00
43.20636,-3.183109,1562.00
43.23970,-3.183021,1564.00
43.27546,-3.183358,1566.00
43.30805,-3.184036,1568.00
43.34388,-3.184784,1570.00
43.37608,-3.184971,1572.00
43.40940,-3.185384,1574.00
43.44226,-3.185585,1576.00
43.47515,-3.185616,1578.00
43.50821,-3.185987,1580.00
43.54125,-3.186023,1582.00
43.57597,-3.186312,1584.00
43.60996,-3.186225,1586.00
43.64311,-3.186388,1588.00
43.67629,-3.187355,1590.00
43.71082,-3.187505,1592.00
43.74546,-3.187796,1594.00
43.77940,-3.188552,1596.00
43.81150,-3.188653,1598.00
43.84292,-3.188399,1600.00
43.87676,-3.187597,1602.00
43.90828,-3.187129,1604.00
43.94186,-3.186959,1606.00
43.97424,-3.187009,1608.00
44.00804,-3.186757,1610.00
44.03982,-3.186208,1612.00
44.07562,-3.186621,1614.00
44.10674,-3.186709,1616.00
44.13914,-3.186965,1618.00
44.17170,-3.187442,1620.00
44.20564,-3.188076,1622.00
44.23770,-3.188224,1624.00
44.27287,-3.188695,1626.00
44.30331,-3.188717,1628.00
44.33745,-3.189152,1630.00
44.36874,-3.189495,1632.00
44.40113,-3.188601,1634.00
44.43690,-3.188699,1636.00
44.46985,-3.188740,1638.00
44.50237,-3.188259,1640.00
44.53636,-3.188334,1642.00
44.56657,-3.188334,1644.00
44.60102,-3.189364,1646.00
44.63463,-3.190103,1648.00
44.67118,-3.189809,1650.00
44.70492,-3.190289,1652.00
44.73881,-3.190350,1654.00
44.77358,-3.190897,1656.00
44.80710,-3.191260,1658.00
44.84156,-3.191435,1660.00
44.87502,-3.191201,1662.00
44.90960,-3.191038,1664.00
44.94124,-3.191060,1666.00
44.97797,-3.190916,1668.00
45.00922,-3.190263,1670.00
45.04316,-3.190397,1672.00
45.07535,-3.189793,1674.00
45.10871,-3.189265,1676.00
45.14323,-3.189563,1678.00
45.17598,-3.189804,1680.00
45.20937,-3.190467,1682.00
45.24131,-3.190558,1684.00
45.27519,-3.190834,1686.00
45.30746,-3.191308,1688.00
45.34105,-3.191302,1690.00
45.37461,-3.192138,1692.00
45.40645,-3.193003,1694.00
45.43929,-3.192818,1696.00
45.47280,-3.192498,1698.00
45.50514,-3.192294,1700.00
45.53801,-3.191854,1702.00
45.56922,-3.191994,1704.00
45.60181,-3.192406,1706.00
45.63676,-3.192325,1708.00
45.67071,-3.193058,1710.00
45.70546,-3.193982,1712.00
45.73881,-3.194599,1714.00
45.77205,-3.194976,1716.00
45.80485,-3.195020,1718.00
45.83886,-3.195297,1720.00
45.87252,-3.195222,1722.00
45.90574,-3.194777,1724.00
45.93812,-3.195129,1726.00
45.97000,-3.195790,1728.00
46.00280,-3.195677,1730.00
46.03446,-3.195522,1732.00
46.06560,-3.195499,1734.00
46.10003,-3.195333,1736.00
46.13188,-3.195287,1738.00
46.16512,-3.195485,1740.00
46.19880,-3.195883,1742.00
46.23318,-3.196570,1744.00
46.26506,-3.196638,1746.00
46.30003,-3.196264,1748.00
46.33437,-3.195979,1750.00
46.36663,-3.195915,1752.00
46.40034,-3.196439,1754.00
46.43374,-3.196809,1756.00
46.46663,-3.197013,1758.00
46.50072,-3.196788,1760.00
46.53485,-3.196489,1762.00
46.56614,-3.196659,1764.00
46.60059,-3.196430,1766.00
46.63174,-3.196315,1768.00
46.66426,-3.196458,1770.00
46.69610,-3.196869,1772.00
46.72909,-3.197381,1774.00
46.76244,-3.197220,1776.00
46.79442,-3.197841,1778.00
46.83078,-3.198646,1780.00
46.86449,-3.199491,1782.00
46.89708,-3.199232,1784.00
46.93238,-3.199155,1786.00
46.96417,-3.199072,1788.00
46.99682,-3.198667,1790.00
47.02728,-3.199184,1792.00
47.06192,-3.199313,1794.00
47.09367,-3.200380,1796.00
47.12645,-3.201134,1798.00
47.15864,-3.201647,1800.00
47.19516,-3.201762,1802.00
47.22832,-3.202033,1804.00
47.25941,-3.202353,1806.00
47.29082,-3.202115,1808.00
47.32302,-3.201490,1810.00
47.35953,-3.201256,1812.00
47.39699,-3.201063,1814.00
47.42796,-3.201346,1816.00
47.46338,-3.201784,1818.00
47.49711,-3.201838,1820.00
47.53073,-3.202320,1822.00
47.56165,-3.202887,1824.00
47.59677,-3.203484,1826.00
47.62963,-3.204123,1828.00
47.66043,-3.204830,1830.00
47.69439,-3.204935,1832.00
47.72537,-3.204811,1834.00
47.75850,-3.204401,1836.00
47.79041,-3.204292,1838.00
47.82238,-3.204097,1840.00
47.85303,-3.204204,1842.00
47.88691,-3.204045,1844.00
47.92217,-3.203717,1846.00
47.95462,-3.203654,1848.00
47.98422,-3.203978,1850.00
48.01911,-3.204375,1852.00
48.05347,-3.203854,1854.00
48.08541,-3.204271,1856.00
48.11557,-3.205055,1858.00
48.14814,-3.205760,1860.00
48.18157,-3.206430,1862.00
48.21778,-3.206849,1864.00
48.25174,-3.207253,1866.00
48.28497,-3.207751,1868.00
48.31676,-3.207770,1870.00
48.35004,-3.207398,1872.00
48.38398,-3.207113,1874.00
48.41370,-3.206788,1876.00
48.44699,-3.206435,1878.00
48.47874,-3.206842,1880.00
48.51049,-3.206821,1882.00
48.54484,-3.207266,1884.00
48.57783,-3.207993,1886.00
48.61295,-3.208134,1888.00
48.64553,-3.207786,1890.00
48.68107,-3.207537,1892.00
48.71150,-3.207399,1894.00
48.74346,-3.207697,1896.00
48.77711,-3.207877,1898.00
48.80884,-3.208555,1900.00
48.84068,-3.209116,1902.00
48.87362,-3.210188,1904.00
48.90712,-3.210710,1906.00
48.94054,-3.211054,1908.00
48.97404,-3.211285,1910.00
49.00702,-3.211115,1912.00
49.04009,-3.211415,1914.00
49.07129,-3.211276,1916.00
49.10410,-3.211639,1918.00
49.13678,-3.211849,1920.00
49.17025,-3.212137,1922.00
49.20260,-3.211903,1924.00
49.23446,-3.211700,1926.00
49.26794,-3.211341,1928.00
49.29927,-3.211807,1930.00
49.33378,-3.211795,1932.00
49.36611,-3.212427,1934.00
49.39956,-3.212861,1936.00
49.43183,-3.212764,1938.00
49.46143,-3.212970,1940.00
49.49249,-3.213195,1942.00
49.52473,-3.213510,1944.00
49.56001,-3.212833,1946.00
49.59186,-3.212952,1948.00
49.62252,-3.213174,1950.00
49.65800,-3.213300,1952.00
49.69162,-3.213602,1954.00
49.72386,-3.214745,1956.00
49.75543,-3.215543,1958.00
49.78969,-3.216457,1960.00
49.82492,-3.217209,1962.00
49.85621,-3.217516,1964.00
49.88829,-3.216944,1966.00
49.92152,-3.216865,1968.00
49.95474,-3.216292,1970.00
49.98623,-3.216048,1972.00
50.02213,-3.215999,1974.00
50.05490,-3.216183,1976.00
50.08750,-3.216357,1978.00
50.12025,-3.216413,1980.00
50.15268,-3.216157,1982.00
50.18772,-3.216690,1984.00
50.22127,-3.217508,1986.00
50.25241,-3.218365,1988.00
50.28557,-3.218306,1990.00
50.31961,-3.217999,1992.00
50.35440,-3.218148,1994.00
50.38606,-3.219100,1996.00
50.41810,-3.219817,1998.00
50.45188,-3.220189,2000.00
50.48499,-3.220771,2002.00
50.51948,-3.221018,2004.00
50.55387,-3.220862,2006.00
50.58592,-3.221049,2008.00
50.61828,-3.220978,2010.00
50.65059,-3.221249,2012.00
50.68169,-3.220413,2014.00
50.71520,-3.220600,2016.00
50.75055,-3.221137,2018.00
50.78374,-3.220956,2020.00
50.81575,-3.221183,2022.00
50.84906,-3.221084,2024.00
50.88243,-3.221301,2026.00
50.91640,-3.221619,2028.00
50.94763,-3.222119,2030.00
50.97818,-3.222152,2032.00
51.01055,-3.223030,2034.00
51.04717,-3.224342,2036.00
51.07766,-3.225115,2038.00
51.10999,-3.225692,2040.00
51.14480,-3.225753,2042.00
51.17671,-3.225374,2044.00
51.20884,-3.225322,2046.00
51.24274,-3.225560,2048.00
51.27766,-3.225357,2050.00
51.31323,-3.225894,2052.00
51.34523,-3.226562,2054.00
51.37720,-3.227297,2056.00
51.41086,-3.227842,2058.00
51.44327,-3.227823,2060.00
51.47776,-3.227973,2062.00
51.50978,-3.227121,2064.00
51.54491,-3.227200,2066.00
51.57871,-3.227546,2068.00
51.61028,-3.227539,2070.00
51.64583,-3.227927,2072.00
51.67898,-3.228024,2074.00
51.70961,-3.227740,2076.00
51.74256,-3.227920,2078.00
51.77449,-3.228103,2080.00
51.80723,-3.228592,2082.00
51.84225,-3.229512,2084.00
51.87538,-3.230191,2086.00
51.91077,-3.230749,2088.00
51.94321,-3.231248,2090.00
51.97523,-3.230843,2092.00
52.00893,-3.231019,2094.00
52.03945,-3.231263,2096.00
52.07455,-3.231827,2098.00
52.10697,-3.232215,2100.00
52.14021,-3.232480,2102.00
52.17445,-3.232819,2104.00
52.20692,-3.233311,2106.00
52.23820,-3.233337,2108.00
52.27239,-3.233705,2110.00
52.30554,-3.234107,2112.00
52.33859,-3.234279,2114.00
52.37084,-3.234306,2116.00
52.40557,-3.234931,2118.00
52.43806,-3.235229,2120.00
52.47228,-3.234838,2122.00
52.50657,-3.235474,2124.00
52.53766,-3.236329,2126.00
52.57067,-3.236668,2128.00
52.60576,-3.236692,2130.00
52.63763,-3.236535,2132.00
52.67274,-3.237013,2134.00
52.70498,-3.236142,2136.00
52.73724,-3.236101,2138.00
52.77019,-3.235492,2140.00
52.80403,-3.235337,2142.00
52.83630,-3.235421,2144.00
52.86939,-3.235431,2146.00
52.90200,-3.235668,2148.00
52.93429,-3.236097,2150.00
52.96907,-3.235917,2152.00
53.00239,-3.236801,2154.00
53.03594,-3.237607,2156.00
53.06926,-3.238590,2158.00
53.10164,-3.239260,2160.00
53.13327,-3.239493,2162.00
53.16673,-3.240308,2164.00
53.19881,-3.240394,2166.00
53.23238,-3.240497,2168.00
53.26666,-3.240253,2170.00
53.29982,-3.239670,2172.00
53.33349,-3.239950,2174.00
53.36671,-3.240451,2176.00
53.39609,-3.240610,2178.00
53.42619,-3.241016,2180.00
53.46227,-3.241401,2182.00
53.49560,-3.241944,2184.00
53.53008,-3.242335,2186.00
53.56178,-3.242805,2188.00
53.59673,-3.242678,2190.00
53.62934,-3.242891,2192.00
53.66215,-3.243520,2194.00
53.69602,-3.244061,2196.00
53.72924,-3.244608,2198.00
53.76219,-3.244546,2200.00
53.79485,-3.243866,2202.00
53.82797,-3.243617,2204.00
53.86010,-3.243975,2206.00
53.89232,-3.244065,2208.00
53.92592,-3.243701,2210.00
53.95953,-3.243706,2212.00
53.99178,-3.244251,2214.00
54.02684,-3.244770,2216.00
54.05873,-3.245577,2218.00
54.09295,-3.246259,2220.00
54.12651,-3.246632,2222.00
54.15776,-3.247254,2224.00
54.18929,-3.247673,2226.00
54.22593,-3.248143,2228.00
54.25804,-3.248553,2230.00
54.29136,-3.248984,2232.00
54.32477,-3.249103,2234.00
54.35954,-3.249195,2236.00
54.39300,-3.249019,2238.00
54.42574,-3.249259,2240.00
54.45876,-3.249516,2242.00
54.49165,-3.249815,2244.00
54.52581,-3.249984,2246.00
54.55934,-3.250616,2248.00
54.59053,-3.250873,2250.00
54.62433,-3.251140,2252.00
54.65702,-3.251577,2254.00
54.69142,-3.252415,2256.00
54.72221,-3.253234,2258.00
54.75556,-3.253492,2260.00
54.79000,-3.253521,2262.00
54.82189,-3.254099,2264.00
54.85387,-3.254319,2266.00
54.88695,-3.254756,2268.00
54.92017,-3.254028,2270.00
54.95424,-3.253829,2272.00
54.98739,-3.253471,2274.00
55.02155,-3.253297,2276.00
55.05722,-3.253329,2278.00
55.08982,-3.254036,2280.00
55.12097,-3.254393,2282.00
55.15464,-3.254753,2284.00
55.18762,-3.255350,2286.00
55.22059,-3.255470,2288.00
55.25500,-3.255880,2290.00
55.28771,-3.256681,2292.00
55.32214,-3.257220,2294.00
55.35412,-3.257664,2296.00
55.38681,-3.257963,2298.00
55.42097,-3.258801,2300.00
55.45639,-3.258852,2302.00
55.49049,-3.258624,2304.00
55.52047,-3.258767,2306.00
55.55514,-3.259310,2308.00
55.58808,-3.259045,2310.00
55.62172,-3.258842,2312.00
55.65583,-3.258709,2314.00
55.68681,-3.259399,2316.00
55.72019,-3.260588,2318.00
55.75514,-3.260779,2320.00
55.78753,-3.261280,2322.00
55.82036,-3.262498,2324.00
55.85370,-3.262760,2326.00
55.88520,-3.263476,2328.00
55.91760,-3.263608,2330.00
55.95132,-3.263913,2332.00
55.98606,-3.264508,2334.00
56.01747,-3.263936,2336.00
56.05283,-3.263546,2338.00
56.08744,-3.263770,2340.00
56.12216,-3.263531,2342.00
56.15593,-3.263727,2344.00
56.18714,-3.264830,2346.00
56.22267,-3.265583,2348.00
56.25509,-3.265650,2350.00
56.28619,-3.266908,2352.00
56.32141,-3.266768,2354.00
56.35361,-3.267464,2356.00
56.38856,-3.268954,2358.00
56.41950,-3.268397,2360.00
56.45236,-3.268802,2362.00
56.48637,-3.269658,2364.00
56.52187,-3.269370,2366.00
56.55349,-3.269646,2368.00
56.58569,-3.269841,2370.00
56.61921,-3.269647,2372.00
56.65215,-3.268703,2374.00
56.68260,-3.269765,2376.00
56.71613,-3.270808,2378.00
56.74918,-3.270349,2380.00
56.78310,-3.270805,2382.00
56.81694,-3.271447,2384.00
56.84878,-3.271956,2386.00
56.87870,-3.273693,2388.00
56.91003,-3.274734,2390.00
56.94465,-3.275381,2392.00
56.97861,-3.274574,2394.00
57.01111,-3.273863,2396.00
57.04457,-3.274380,2398.00
57.08055,-3.274938,2400.00
57.11307,-3.276565,2402.00
57.14574,-3.278205,2404.00
57.17673,-3.278307,2406.00
57.21278,-3.277515,2408.00
57.24561,-3.277181,2410.00
57.27836,-3.278790,2412.00
57.31129,-3.278417,2414.00
57.34086,-3.279660,2416.00
57.37297,-3.280354,2418.00
57.40835,-3.279643,2420.00
57.44152,-3.281365,2422.00
57.47494,-3.282644,2424.00
57.51049,-3.281886,2426.00
57.54163,-3.282809,2428.00
57.57363,-3.283620,2430.00
57.60863,-3.282892,2432.00
57.64368,-3.282613,2434.00
57.67490,-3.282991,2436.00
57.70958,-3.283222,2438.00
57.74201,-3.283466,2440.00
57.77599,-3.284114,2442.00
57.80711,-3.284557,2444.00
57.83823,-3.285162,2446.00
57.87291,-3.285881,2448.00
57.90678,-3.286318,2450.00
57.94144,-3.287007,2452.00
57.97434,-3.287465,2454.00
58.00385,-3.289033,2456.00
58.04011,-3.289404,2458.00
58.07281,-3.290243,2460.00
58.10785,-3.290600,2462.00
58.14051,-3.291259,2464.00
58.17392,-3.291480,2466.00
58.20565,-3.291329,2468.00
58.24173,-3.291361,2470.00
58.27546,-3.291379,2472.00
58.30710,-3.291949,2474.00
58.34137,-3.292269,2476.00
58.37323,-3.292666,2478.00
58.40549,-3.292354,2480.00
58.43974,-3.292878,2482.00
58.47214,-3.293896,2484.00
58.50806,-3.294832,2486.00
58.54250,-3.296457,2488.00
58.57300,-3.296833,2490.00
58.60830,-3.297322,2492.00
58.64125,-3.297971,2494.00
58.67463,-3.297863,2496.00
58.70700,-3.298204,2498.00
58.73925,-3.298978,2500.00
58.77179,-3.299396,2502.00
58.80622,-3.299863,2504.00
58.83854,-3.300764,2506.00
58.87018,-3.301854,2508.00
58.90482,-3.302095,2510.00
58.93979,-3.302578,2512.00
58.97316,-3.302469,2514.00
59.00730,-3.302421,2516.00
59.04008,-3.302469,2518.00
59.07373,-3.302436,2520.00
59.10649,-3.302301,2522.00
59.13871,-3.302405,2524.00
59.17254,-3.302428,2526.00
59.20434,-3.303452,2528.00
59.23827,-3.304211,2530.00
59.27306,-3.305538,2532.00
59.30478,-3.306305,2534.00
59.33877,-3.307126,2536.00
59.37412,-3.307724,2538.00
59.40647,-3.307913,2540.00
59.43861,-3.308372,2542.00
59.47302,-3.308749,2544.00
59.50705,-3.309234,2546.00
59.54176,-3.309698,2548.00
59.57434,-3.310677,2550.00
59.60566,-3.311186,2552.00
59.64014,-3.311411,2554.00
59.67453,-3.311929,2556.00
59.70655,-3.311919,2558.00
59.73998,-3.311960,2560.00
59.77416,-3.312101,2562.00
59.80463,-3.312412,2564.00
59.83773,-3.312676,2566.00
59.86948,-3.312734,2568.00
59.90248,-3.312367,2570.00
59.93544,-3.312032,2572.00
59.97128,-3.311999,2574.00
60.00094,-3.312423,2576.00
60.03509,-3.312513,2578.00
60.06728,-3.313184,2580.00
60.10154,-3.314065,2582.00
60.13526,-3.315196,2584.00
60.16776,-3.315817,2586.00
60.20003,-3.315911,2588.00
60.23263,-3.316424,2590.00
60.26950,-3.317189,2592.00
60.30024,-3.317642,2594.00
60.33640,-3.318064,2596.00
60.37060,-3.318446,2598.00
60.40214,-3.319310,2600.00
60.43371,-3.319595,2602.00
60.46620,-3.319766,2604.00
60.50081,-3.319766,2606.00
60.53472,-3.320224,2608.00
60.56520,-3.321173,2610.00
60.59838,-3.322398,2612.00
60.63291,-3.323063,2614.00
60.66562,-3.323617,2616.00
60.69735,-3.324206,2618.00
60.73135,-3.325331,2620.00
60.76509,-3.325827,2622.00
60.79734,-3.326225,2624.00
60.83096,-3.327187,2626.00
60.86173,-3.327050,2628.00
60.89464,-3.327094,2630.00
60.92914,-3.327294,2632.00
60.96324,-3.328254,2634.00
60.99613,-3.327983,2636.00
61.02981,-3.328032,2638.00
61.06521,-3.328259,2640.00
61.09934,-3.328558,2642.00
61.13221,-3.329252,2644.00
61.16532,-3.329522,2646.00
61.19978,-3.330035,2648.00
61.23089,-3.330329,2650.00
61.25901,-3.330429,2652.00
61.29075,-3.331173,2654.00
61.32425,-3.332068,2656.00
61.35582,-3.332862,2658.00
61.39224,-3.333357,2660.00
61.42334,-3.334535,2662.00
61.45783,-3.335622,2664.00
61.48938,-3.337073,2666.00
61.52400,-3.338440,2668.00
61.55755,-3.339570,2670.00
61.59081,-3.339840,2672.00
61.62302,-3.340974,2674.00
61.65841,-3.342271,2676.00
61.69320,-3.342624,2678.00
61.72647,-3.342615,2680.00
61.76025,-3.342833,2682.00
61.79224,-3.342821,2684.00
61.82431,-3.342944,2686.00
61.85848,-3.343359,2688.00
61.89226,-3.343465,2690.00
61.92540,-3.344149,2692.00
61.95773,-3.345379,2694.00
61.99125,-3.346527,2696.00
62.02174,-3.348070,2698.00
62.05546,-3.349025,2700.00
62.08821,-3.350020,2702.00
62.12250,-3.350995,2704.00
62.15418,-3.352238,2706.00
62.18853,-3.353008,2708.00
62.22250,-3.354064,2710.00
62.25669,-3.354527,2712.00
62.29115,-3.354300,2714.00
62.32136,-3.354689,2716.00
62.35287,-3.355081,2718.00
62.38834,-3.355324,2720.00
62.42099,-3.355726,2722.00
62.45307,-3.356408,2724.00
62.48746,-3.357249,2726.00
62.52154,-3.357725,2728.00
62.55466,-3.358604,2730.00
62.58927,-3.359209,2732.00
62.62409,-3.359750,2734.00
62.65837,-3.360705,2736.00
62.68962,-3.361728,2738.00
62.72257,-3.362497,2740.00
62.75557,-3.363072,2742.00
62.78635,-3.364203,2744.00
62.82092,-3.365270,2746.00
62.85195,-3.366137,2748.00
62.88387,-3.367054,2750.00
62.91885,-3.367941,2752.00
62.95188,-3.368687,2754.00
62.98626,-3.369777,2756.00
63.01805,-3.370300,2758.00
63.05370,-3.371352,2760.00
63.08517,-3.372427,2762.00
63.11984,-3.373035,2764.00
63.15183,-3.373968,2766.00
63.18406,-3.373730,2768.00
63.21721,-3.373506,2770.00
63.25239,-3.373793,2772.00
63.28696,-3.374108,2774.00
63.32086,-3.375150,2776.00
63.35479,-3.375865,2778.00
63.38828,-3.377122,2780.00
63.42351,-3.377520,2782.00
63.45399,-3.378550,2784.00
63.48734,-3.379798,2786.00
63.51832,-3.380734,2788.00
63.55258,-3.381755,2790.00
63.58516,-3.382748,2792.00
63.62008,-3.382675,2794.00
63.65302,-3.383079,2796.00
63.68606,-3.383561,2798.00
63.71883,-3.384009,2800.00
63.75019,-3.384181,2802.00
63.78189,-3.384825,2804.00
63.81495,-3.385145,2806.00
63.84985,-3.386229,2808.00
63.88436,-3.386544,2810.00
63.91736,-3.386443,2812.00
63.95135,-3.387108,2814.00
63.98508,-3.388335,2816.00
64.01839,-3.389306,2818.00
64.04836,-3.390139,2820.00
64.08169,-3.391441,2822.00
64.11542,-3.392821,2824.00
64.14893,-3.393247,2826.00
64.18224,-3.394069,2828.00
64.21587,-3.395076,2830.00
64.24890,-3.395990,2832.00
64.28082,-3.397272,2834.00
64.31576,-3.397834,2836.00
64.34964,-3.398606,2838.00
64.38341,-3.398652,2840.00
64.41456,-3.399442,2842.00
64.44716,-3.400062,2844.00
64.48026,-3.401713,2846.00
64.51541,-3.403385,2848.00
64.55014,-3.404207,2850.00
64.58102,-3.405026,2852.00
64.61421,-3.406046,2854.00
64.64735,-3.406586,2856.00
64.68078,-3.407069,2858.00
64.71492,-3.407086,2860.00
64.74580,-3.407663,2862.00
64.77835,-3.407453,2864.00
64.81263,-3.407719,2866.00
64.84613,-3.408487,2868.00
64.87950,-3.409717,2870.00
64.91300,-3.410051,2872.00
64.94603,-3.410731,2874.00
64.97973,-3.411714,2876.00
65.01363,-3.412593,2878.00
65.04498,-3.413934,2880.00
65.08057,-3.415574,2882.00
65.11251,-3.417141,2884.00
65.14393,-3.418623,2886.00
65.17838,-3.419759,2888.00
65.20863,-3.420084,2890.00
65.24118,-3.420006,2892.00
65.27626,-3.420720,2894.00
65.30811,-3.421498,2896.00
65.34042,-3.422213,2898.00
65.37550,-3.422810,2900.00
65.41021,-3.423454,2902.00
65.44129,-3.424076,2904.00
65.47606,-3.425132,2906.00
65.50887,-3.426603,2908.00
65.54152,-3.427549,2910.00
65.57373,-3.427930,2912.00
65.60817,-3.428817,2914.00
65.64196,-3.429456,2916.00
65.67660,-3.429765,2918.00
65.70810,-3.431209,2920.00
65.74047,-3.433148,2922.00
65.77558,-3.434566,2924.00
65.80965,-3.435754,2926.00
65.84196,-3.436397,2928.00
65.87690,-3.436720,2930.00
65.91006,-3.437109,2932.00
65.94148,-3.437715,2934.00
65.97202,-3.439319,2936.00
66.00631,-3.440686,2938.00
66.04268,-3.441788,2940.00
66.07656,-3.442515,2942.00
66.10962,-3.443424,2944.00
66.14349,-3.444832,2946.00
66.17566,-3.446475,2948.00
66.21122,-3.447411,2950.00
66.24683,-3.448157,2952.00
66.27823,-3.448907,2954.00
66.31019,-3.450243,2956.00
66.34465,-3.450402,2958.00
66.37734,-3.450305,2960.00
66.41062,-3.451168,2962.00
66.44414,-3.451451,2964.00
66.48033,-3.452479,2966.00
66.51351,-3.453531,2968.00
66.54639,-3.454427,2970.00
66.57944,-3.454889,2972.00
66.61464,-3.456106,2974.00
66.64964,-3.457258,2976.00
66.68337,-3.458043,2978.00
66.71731,-3.458885,2980.00
66.75002,-3.459930,2982.00
66.78557,-3.460669,2984.00
66.81761,-3.461805,2986.00
66.85179,-3.462919,2988.00
66.88433,-3.464125,2990.00
66.91987,-3.464645,2992.00
66.95387,-3.466361,2994.00
66.98765,-3.467667,2996.00
67.02316,-3.469209,2998.00
67.05200,-3.470609,3000.00
67.08698,-3.471683,3002.00
67.12100,-3.472765,3004.00
67.15573,-3.472864,3006.00
67.18775,-3.473188,3008.00
67.22054,-3.474246,3010.00
67.25451,-3.475401,3012.00
67.29006,-3.476483,3014.00
67.32443,-3.477319,3016.00
67.35602,-3.478106,3018.00
67.38846,-3.478369,3020.00
67.42132,-3.479522,3022.00
67.45259,-3.480351,3024.00
67.48626,-3.480741,3026.00
67.52028,-3.481720,3028.00
67.55173,-3.482944,3030.00
67.58615,-3.484021,3032.00
67.62075,-3.485517,3034.00
67.65093,-3.486889,3036.00
67.68514,-3.487441,3038.00
67.71846,-3.488300,3040.00
67.75124,-3.489210,3042.00
67.78700,-3.490217,3044.00
67.82217,-3.490618,3046.00
67.85448,-3.491528,3048.00
67.88893,-3.492884,3050.00
67.91857,-3.493975,3052.00
67.95573,-3.494294,3054.00
67.98838,-3.494472,3056.00
68.02324,-3.495185,3058.00
68.05610,-3.495804,3060.00
68.08879,-3.497214,3062.00
68.12233,-3.498550,3064.00
68.15560,-3.499568,3066.00
68.18824,-3.500964,3068.00
68.22272,-3.502919,3070.00
68.25558,-3.504164,3072.00
68.29079,-3.505283,3074.00
68.32302,-3.506039,3076.00
68.35598,-3.506920,3078.00
68.38872,-3.507344,3080.00
68.42141,-3.507950,3082.00
68.45534,-3.508813,3084.00
68.48716,-3.509171,3086.00
68.52022,-3.509671,3088.00
68.55220,-3.510895,3090.00
68.58640,-3.511631,3092.00
68.62020,-3.512470,3094.00
68.65297,-3.513891,3096.00
68.68468,-3.515526,3098.00
68.72039,-3.517694,3100.00
68.75404,-3.519868,3102.00
68.78906,-3.521362,3104.00
68.82272,-3.522215,3106.00
68.85544,-3.522846,3108.00
68.88899,-3.523315,3110.00
68.92077,-3.523889,3112.00
68.95347,-3.524457,3114.00
68.98768,-3.524818,3116.00
69.01889,-3.525246,3118.00
69.05352,-3.525466,3120.00
69.08499,-3.525798,3122.00
69.11586,-3.526700,3124.00
69.14689,-3.528323,3126.00
69.18120,-3.529464,3128.00
69.21432,-3.530488,3130.00
69.24748,-3.530884,3132.00
69.27938,-3.531547,3134.00
69.31286,-3.532052,3136.00
69.34673,-3.533485,3138.00
69.37805,-3.535363,3140.00
69.40988,-3.536969,3142.00
69.44456,-3.537726,3144.00
69.47555,-3.538987,3146.00
69.50922,-3.539847,3148.00
69.54470,-3.540165,3150.00
69.57574,-3.541238,3152.00
69.60703,-3.542324,3154.00
69.64075,-3.543019,3156.00
69.67313,-3.544217,3158.00
69.70594,-3.545201,3160.00
69.73786,-3.546003,3162.00
69.77065,-3.547100,3164.00
69.80401,-3.548449,3166.00
69.83912,-3.550101,3168.00
69.86868,-3.551415,3170.00
69.90354,-3.552804,3172.00
69.93436,-3.554474,3174.00
69.97044,-3.555882,3176.00
70.00429,-3.557087,3178.00
70.03898,-3.558247,3180.00
70.06966,-3.559463,3182.00
70.10250,-3.560546,3184.00
70.13711,-3.561361,3186.00
70.17100,-3.562153,3188.00
70.20095,-3.563131,3190.00
70.23599,-3.563731,3192.00
70.27286,-3.565101,3194.00
70.30455,-3.566005,3196.00
70.33866,-3.567014,3198.00
70.37174,-3.568463,3200.00
70.40602,-3.569350,3202.00
70.43931,-3.569903,3204.00
70.47094,-3.569863,3206.00
70.50263,-3.570549,3208.00
70.53690,-3.571510,3210.00
70.56976,-3.572642,3212.00
70.60316,-3.573853,3214.00
70.63526,-3.575807,3216.00
70.66893,-3.577950,3218.00
70.70205,-3.579522,3220.00
70.73601,-3.580784,3222.00
70.76803,-3.581277,3224.00
70.80494,-3.582384,3226.00
70.83709,-3.583394,3228.00
70.87023,-3.584355,3230.00
70.90242,-3.585451,3232.00
70.93597,-3.586669,3234.00
70.97039,-3.587329,3236.00
71.00255,-3.587884,3238.00
71.03806,-3.588331,3240.00
71.07157,-3.589590,3242.00
71.10497,-3.590328,3244.00
71.13925,-3.591591,3246.00
71.17281,-3.592554,3248.00
71.20690,-3.593428,3250.00
71.24237,-3.594753,3252.00
71.27461,-3.597045,3254.00
71.30709,-3.598665,3256.00
71.34132,-3.599317,3258.00
71.37619,-3.599594,3260.00
71.40811,-3.600774,3262.00
71.44010,-3.601978,3264.00
71.47252,-3.602529,3266.00
71.50542,-3.603527,3268.00
71.53918,-3.605335,3270.00
71.57251,-3.606663,3272.00
71.60678,-3.607676,3274.00
71.64078,-3.608509,3276.00
71.67354,-3.609941,3278.00
71.70673,-3.611359,3280.00
71.73848,-3.612152,3282.00
71.77207,-3.613479,3284.00
71.80658,-3.614994,3286.00
71.84001,-3.615706,3288.00
71.87439,-3.617007,3290.00
71.90827,-3.617826,3292.00
71.93811,-3.618272,3294.00
71.97174,-3.618925,3296.00
72.00474,-3.619385,3298.00
72.03476,-3.620366,3300.00
72.06988,-3.621016,3302.00
72.10422,-3.621262,3304.00
72.13812,-3.621743,3306.00
72.17157,-3.621969,3308.00
72.20670,-3.623151,3310.00
72.23636,-3.624585,3312.00
72.27190,-3.625758,3314.00
72.30409,-3.627491,3316.00
72.33874,-3.628506,3318.00
72.37362,-3.628580,3320.00
72.40677,-3.628692,3322.00
72.43893,-3.629078,3324.00
72.47095,-3.629688,3326.00
72.50483,-3.630448,3328.00
72.53787,-3.630900,3330.00
72.57061,-3.631369,3332.00
72.60623,-3.632054,3334.00
72.64081,-3.631855,3336.00
72.67478,-3.631885,3338.00
72.70729,-3.631810,3340.00
72.73915,-3.631695,3342.00
72.77261,-3.631301,3344.00
72.80848,-3.630882,3346.00
72.84004,-3.630019,3348.00
72.87179,-3.629203,3350.00
72.90454,-3.627405,3352.00
72.93637,-3.625144,3354.00
72.97083,-3.622175,3356.00
73.00497,-3.618543,3358.00
73.03642,-3.613774,3360.00
73.06713,-3.607957,3362.00
73.10004,-3.599866,3364.00
73.13505,-3.589857,3366.00
73.16730,-3.576348,3368.00
73.20145,-3.556573,3370.00
73.23451,-3.529271,3372.00
73.26810,-3.490260,3374.00
73.30080,-3.434382,3376.00
73.33244,-3.356325,3378.00
73.36608,-3.245241,3380.00
73.39733,-3.085695,3382.00
73.43190,-2.851425,3384.00
73.46538,-2.499193,3386.00
73.49678,-1.965273,3388.00
73.52910,-1.198806,3390.00
73.56378,-0.232363,3392.00
73.59848,0.695492,3394.00
73.62975,1.136767,3396.00
73.66116,0.934548,3398.00
73.69497,0.293622,3400.00
73.72855,-0.461888,3402.00
73.76314,-1.126492,3404.00
73.79879,-1.659081,3406.00
73.82968,-2.078686,3408.00
73.86127,-2.408589,3410.00
73.89570,-2.670176,3412.00
73.93012,-2.878296,3414.00
73.96134,-3.045290,3416.00
73.99434,-3.179125,3418.00
74.02728,-3.286179,3420.00
74.06143,-3.372533,3422.00
74.09620,-3.441516,3424.00
74.12760,-3.496138,3426.00
74.16118,-3.539999,3428.00
74.19656,-3.574707,3430.00
74.22886,-3.600694,3432.00
74.26147,-3.623143,3434.00
74.29526,-3.640770,3436.00
74.32915,-3.655234,3438.00
74.35883,-3.667117,3440.00
74.39265,-3.676814,3442.00
74.42912,-3.684910,3444.00
74.45701,-3.690503,3446.00
74.49153,-3.694008,3448.00
74.52610,-3.696354,3450.00
74.55894,-3.698189,3452.00
74.59171,-3.699109,3454.00
74.62644,-3.699298,3456.00
74.65802,-3.699433,3458.00
74.68979,-3.698367,3460.00
74.72433,-3.697076,3462.00
74.75862,-3.695956,3464.00
74.78917,-3.693897,3466.00
74.82084,-3.691602,3468.00
74.85495,-3.688862,3470.00
74.88860,-3.685189,3472.00
74.92223,-3.680724,3474.00
74.95597,-3.675370,3476.00
74.98764,-3.668947,3478.00
75.02249,-3.660929,3480.00
75.05423,-3.652373,3482.00
75.08736,-3.641865,3484.00
75.12019,-3.629463,3486.00
75.15636,-3.614706,3488.00
75.18795,-3.597662,3490.00
75.22226,-3.577533,3492.00
75.25516,-3.553760,3494.00
75.28970,-3.525075,3496.00
75.32551,-3.490042,3498.00
75.35880,-3.447038,3500.00
75.39315,-3.393912,3502.00
75.42798,-3.325950,3504.00
75.46187,-3.237891,3506.00
75.49570,-3.123857,3508.00
75.52903,-2.969180,3510.00
75.56040,-2.756073,3512.00
75.59167,-2.453812,3514.00
75.62635,-2.011327,3516.00
75.65846,-1.337710,3518.00
75.69345,-0.284041,3520.00
75.72643,1.283481,3522.00
75.75857,3.367601,3524.00
75.78908,6.037075,3526.00
75.82325,8.894328,3528.00
75.85387,10.385221,3530.00
75.88768,9.469843,3532.00
75.92240,7.220962,3534.00
75.95472,4.911084,3536.00
75.99064,3.071347,3538.00
76.02359,1.652943,3540.00
76.05851,0.544647,3542.00
76.09307,-0.330171,3544.00
76.12563,-1.032228,3546.00
76.15681,-1.602714,3548.00
76.19298,-2.065739,3550.00
76.22468,-2.438721,3552.00
76.25813,-2.737838,3554.00
76.29124,-2.979199,3556.00
76.32271,-3.172329,3558.00
76.35966,-3.327534,3560.00
76.38919,-3.452416,3562.00
76.42215,-3.552236,3564.00
76.45597,-3.631976,3566.00
76.48914,-3.695922,3568.00
76.52120,-3.747818,3570.00
76.55419,-3.789905,3572.00
76.58905,-3.823523,3574.00
76.62137,-3.850249,3576.00
76.65155,-3.872250,3578.00
76.68476,-3.890502,3580.00
76.71834,-3.905864,3582.00
76.75191,-3.917963,3584.00
76.78405,-3.927806,3586.00
76.81538,-3.937237,3588.00
76.84675,-3.944694,3590.00
76.87940,-3.951782,3592.00
76.91189,-3.957993,3594.00
76.94506,-3.963920,3596.00
76.97769,-3.968487,3598.00
77.01063,-3.972220,3600.00
77.04390,-3.976142,3602.00
77.07708,-3.980286,3604.00
77.11172,-3.983628,3606.00
77.14207,-3.986405,3608.00
77.17750,-3.988912,3610.00
77.21075,-3.992103,3612.00
77.24244,-3.994592,3614.00
77.27615,-3.997192,3616.00
77.30987,-4.001026,3618.00
77.34638,-4.003913,3620.00
77.38148,-4.005826,3622.00
77.40943,-4.008169,3624.00
77.44288,-4.010594,3626.00
77.47786,-4.012445,3628.00
77.51110,-4.014473,3630.00
77.54598,-4.016753,3632.00
77.58036,-4.019744,3634.00
77.61442,-4.022423,3636.00
77.64764,-4.025914,3638.00
77.68240,-4.028458,3640.00
77.71520,-4.031130,3642.00
77.75012,-4.033350,3644.00
77.78120,-4.035614,3646.00
77.81551,-4.038383,3648.00
77.85034,-4.040571,3650.00
77.88269,-4.042563,3652.00
77.91675,-4.044913,3654.00
77.94979,-4.049070,3656.00
77.98162,-4.053074,3658.00
78.01818,-4.055897,3660.00
78.04973,-4.059974,3662.00
78.08231,-4.062707,3664.00
78.11598,-4.064962,3666.00
78.14870,-4.065835,3668.00
78.18229,-4.067057,3670.00
78.21358,-4.068031,3672.00
78.24871,-4.069429,3674.00
78.28092,-4.069831,3676.00
78.31282,-4.070838,3678.00
78.34965,-4.073329,3680.00
78.38069,-4.077731,3682.00
78.41318,-4.083059,3684.00
78.44643,-4.087709,3686.00
78.47765,-4.093142,3688.00
78.51090,-4.097433,3690.00
78.54365,-4.102069,3692.00
78.57694,-4.106235,3694.00
78.61266,-4.109719,3696.00
78.64416,-4.113350,3698.00
78.67605,-4.116582,3700.00
78.70897,-4.118489,3702.00
78.74260,-4.121826,3704.00
78.77726,-4.125191,3706.00
78.81027,-4.128212,3708.00
78.84623,-4.131180,3710.00
78.87845,-4.134823,3712.00
78.91047,-4.138922,3714.00
78.94440,-4.142585,3716.00
78.97812,-4.145853,3718.00
79.01404,-4.148836,3720.00
79.04940,-4.152037,3722.00
79.08170,-4.154898,3724.00
79.11509,-4.157410,3726.00
79.14818,-4.160697,3728.00
79.17958,-4.163403,3730.00
79.21325,-4.167176,3732.00
79.24646,-4.171334,3734.00
79.28063,-4.175648,3736.00
79.31523,-4.180126,3738.00
79.34659,-4.184245,3740.00
79.37749,-4.187821,3742.00
79.41179,-4.190441,3744.00
79.44599,-4.193955,3746.00
79.48257,-4.197627,3748.00
79.51425,-4.199410,3750.00
79.54704,-4.201141,3752.00
79.58127,-4.204319,3754.00
79.61693,-4.208618,3756.00
79.65044,-4.211583,3758.00
79.68531,-4.213506,3760.00
79.71795,-4.217277,3762.00
79.75109,-4.221754,3764.00
79.78264,-4.226426,3766.00
79.81581,-4.230320,3768.00
79.84707,-4.234407,3770.00
79.88053,-4.237969,3772.00
79.91304,-4.240827,3774.00
79.94713,-4.243870,3776.00
79.97843,-4.247617,3778.00

