$DSC2
$Conventional
$Adiabatic Mode
$Scanrate Corrected-Programmed
$Baseline Subtraction Method: 0 File: NONE
$DP Corrected
$RTD Corrected
$MidGain FB,  0.75 
$ADCGainCode:  0 
$ 10 
$NOT
$ 10 
$ 0            20            25           False
$ 0 
$ 15           80            60            5             0             2             2             0 
$ 15           80            60            5             0             2             2             0 
$ 15           80            60            5             0             2             2             0 
$ 15           80            60            5             0             2             2             0 
$ 15           80            60            5             0             2             2             0 
$ 15           80            60            5             0             2             2             0 
$ 15           80            60            5             0             2             2             0 
$ 15           80            60            5             0             2             2             0 
$ 15           80            60            5             0             2             2             0 
$ 15           80            60            5             0             2             2             0 
# 0 
# 0.5197
# 0
# 11.63 
# 0.75 
# 10.743 
? 
% VPDSC02.06.462
% 0.51971 
% 11.63 
%-0.995356 , 100.17434 
% 3.676 
% 250 ,       -22.5 
% 1000.3 , 1000.3 
% 0.88219 ,-0.02026 
%-0.08266 , 0.02515 
% 1 , 0.055 
% 0.0522 
% 1 , 130 
% 0.080433 , 0.056504 
% 0 , 8 
% 0 , 18 
% 0.072589046661 ,-0.003235099108 , 8.240903228419E-06 , 2.357972384211E-07 ,-7.440723641986E-10 
% VPViewer2000 Ver: 1.4.14
@5
17.38500,-3.077052,2.00
17.41673,-3.077001,4.00
17.45194,-3.076111,6.00
17.48339,-3.075678,8.00
17.51704,-3.075877,10.00
17.55024,-3.075302,12.00
17.58393,-3.075100,14.00
17.61779,-3.075346,16.00
17.65075,-3.075170,18.00
17.68352,-3.075055,20.00
17.71660,-3.074905,22.00
17.74960,-3.074625,24.00
17.78292,-3.074095,26.00
17.81691,-3.073631,28.00
17.84794,-3.073258,30.00
17.88060,-3.072872,32.00
17.91531,-3.072715,34.00
17.94877,-3.072473,36.00
17.98138,-3.071990,38.00
18.01548,-3.072096,40.00
18.04756,-3.072494,42.00
18.07773,-3.072399,44.00
18.11192,-3.073304,46.00
18.14694,-3.073660,48.00
18.17852,-3.073160,50.00
18.21337,-3.073247,52.00
18.24696,-3.073530,54.00
18.27911,-3.073662,56.00
18.31059,-3.073447,58.00
18.34070,-3.073018,60.00
18.37398,-3.072846,62.00
18.40828,-3.073133,64.00
18.44157,-3.072803,66.00
18.47545,-3.072473,68.00
18.50849,-3.071431,70.00
18.54284,-3.071016,72.00
18.57480,-3.070351,74.00
18.61068,-3.069986,76.00
18.64283,-3.069576,78.00
18.67619,-3.069044,80.00
18.70957,-3.069914,82.00
18.74183,-3.070133,84.00
18.77611,-3.069703,86.00
18.81004,-3.069315,88.00
18.84441,-3.068832,90.00
18.87815,-3.068589,92.00
18.91139,-3.068873,94.00
18.94191,-3.068820,96.00
18.97820,-3.068526,98.00
19.01045,-3.068664,100.00
19.04434,-3.068942,102.00
19.07714,-3.068020,104.00
19.11214,-3.067598,106.00
19.14479,-3.067508,108.00
19.17648,-3.066802,110.00
19.21108,-3.067226,112.00
19.24463,-3.066655,114.00
19.27884,-3.066695,116.00
19.31292,-3.066352,118.00
19.34510,-3.066338,120.00
19.38044,-3.066353,122.00
19.41580,-3.066143,124.00
19.44746,-3.066319,126.00
19.48177,-3.066610,128.00
19.51473,-3.066838,130.00
19.54775,-3.067239,132.00
19.58013,-3.067271,134.00
19.61359,-3.067442,136.00
19.64839,-3.067718,138.00
19.67949,-3.067787,140.00
19.71663,-3.067802,142.00
19.74993,-3.068090,144.00
19.78207,-3.067993,146.00
19.81484,-3.068263,148.00
19.84768,-3.067916,150.00
19.88170,-3.067773,152.00
19.91706,-3.067646,154.00
19.95115,-3.067613,156.00
19.98514,-3.067472,158.00
20.01573,-3.067324,160.00
20.05180,-3.067586,162.00
20.08309,-3.067525,164.00
20.11394,-3.067743,166.00
20.15029,-3.067669,168.00
20.18204,-3.067924,170.00
20.21642,-3.067600,172.00
20.25067,-3.067348,174.00
20.28206,-3.067796,176.00
20.31432,-3.067591,178.00
20.34816,-3.067911,180.00
20.38058,-3.067513,182.00
20.41461,-3.067251,184.00
20.44811,-3.066908,186.00
20.47923,-3.067657,188.00
20.51278,-3.067234,190.00
20.54793,-3.066689,192.00
20.58057,-3.066301,194.00
20.61562,-3.065615,196.00
20.64544,-3.065883,198.00
20.67880,-3.065925,200.00
20.71083,-3.065244,202.00
20.74523,-3.064722,204.00
20.77859,-3.064460,206.00
20.81058,-3.064310,208.00
20.84413,-3.064191,210.00
20.87806,-3.064068,212.00
20.91365,-3.063895,214.00
20.94612,-3.063679,216.00
20.97719,-3.063346,218.00
21.01289,-3.062624,220.00
21.04452,-3.062306,222.00
21.07744,-3.062442,224.00
21.10928,-3.062611,226.00
21.14023,-3.062623,228.00
21.17227,-3.062782,230.00
21.20767,-3.062847,232.00
21.24486,-3.062858,234.00
21.27655,-3.063646,236.00
21.30977,-3.062979,238.00
21.34318,-3.062787,240.00
21.37537,-3.062636,242.00
21.40849,-3.062402,244.00
21.44141,-3.062503,246.00
21.47340,-3.062531,248.00
21.50673,-3.062210,250.00
21.54294,-3.062478,252.00
21.57612,-3.062382,254.00
21.61021,-3.062365,256.00
21.64015,-3.062803,258.00
21.67167,-3.062477,260.00
21.70413,-3.062268,262.00
21.73747,-3.062136,264.00
21.77182,-3.061760,266.00
21.80307,-3.061171,268.00
21.83678,-3.060860,270.00
21.87046,-3.060647,272.00
21.90503,-3.060827,274.00
21.93775,-3.060275,276.00
21.96942,-3.059921,278.00
22.00300,-3.059911,280.00
22.03674,-3.059907,282.00
22.06772,-3.060181,284.00
22.09969,-3.060760,286.00
22.13336,-3.060764,288.00
22.16634,-3.060343,290.00
22.19829,-3.060123,292.00
22.22927,-3.060313,294.00
22.26123,-3.061033,296.00
22.29728,-3.061176,298.00
22.32916,-3.061503,300.00
22.36483,-3.061264,302.00
22.39882,-3.062108,304.00
22.43236,-3.062474,306.00
22.46399,-3.062341,308.00
22.49606,-3.062521,310.00
22.52866,-3.062785,312.00
22.56221,-3.062849,314.00
22.59432,-3.062745,316.00
22.62660,-3.062849,318.00
22.65889,-3.062253,320.00
22.69375,-3.062062,322.00
22.72426,-3.062113,324.00
22.75853,-3.062172,326.00
22.79366,-3.061923,328.00
22.82625,-3.061344,330.00
22.85868,-3.060916,332.00
22.89254,-3.061074,334.00
22.92472,-3.061161,336.00
22.95904,-3.060994,338.00
22.99314,-3.060345,340.00
23.02522,-3.059623,342.00
23.05861,-3.059753,344.00
23.09179,-3.060034,346.00
23.12687,-3.060187,348.00
23.15809,-3.060440,350.00
23.19185,-3.060383,352.00
23.22486,-3.060197,354.00
23.25591,-3.060403,356.00
23.28802,-3.060489,358.00
23.32149,-3.060303,360.00
23.35298,-3.060421,362.00
23.38634,-3.060456,364.00
23.41949,-3.060430,366.00
23.45248,-3.061312,368.00
23.48610,-3.060824,370.00
23.51929,-3.060603,372.00
23.55246,-3.060569,374.00
23.58486,-3.060653,376.00
23.61755,-3.060794,378.00
23.64792,-3.060715,380.00
23.67919,-3.060569,382.00
23.71424,-3.060473,384.00
23.74753,-3.060284,386.00
23.78075,-3.060527,388.00
23.81354,-3.060797,390.00
23.84596,-3.060614,392.00
23.87712,-3.060116,394.00
23.91171,-3.060549,396.00
23.94494,-3.060315,398.00
23.97693,-3.060081,400.00
24.01225,-3.059773,402.00
24.04702,-3.060082,404.00
24.08200,-3.059951,406.00
24.11399,-3.060247,408.00
24.14573,-3.060705,410.00
24.18029,-3.060691,412.00
24.21610,-3.060902,414.00
24.24749,-3.061052,416.00
24.27930,-3.061651,418.00
24.31065,-3.061467,420.00
24.34486,-3.061661,422.00
24.37602,-3.061744,424.00
24.40882,-3.061694,426.00
24.44170,-3.061979,428.00
24.47549,-3.061925,430.00
24.50883,-3.061916,432.00
24.54220,-3.061616,434.00
24.57593,-3.061795,436.00
24.60710,-3.062483,438.00
24.64219,-3.062257,440.00
24.67527,-3.061973,442.00
24.70973,-3.061728,444.00
24.74139,-3.061569,446.00
24.77409,-3.061563,448.00
24.80686,-3.061729,450.00
24.84118,-3.062048,452.00
24.87288,-3.061647,454.00
24.90499,-3.061301,456.00
24.93761,-3.061328,458.00
24.97029,-3.062015,460.00
25.00569,-3.061762,462.00
25.03865,-3.062055,464.00
25.07079,-3.062255,466.00
25.10137,-3.062252,468.00
25.13584,-3.061882,470.00
25.17010,-3.061524,472.00
25.20282,-3.061595,474.00
25.23443,-3.061632,476.00
25.26574,-3.061591,478.00
25.30153,-3.062375,480.00
25.33488,-3.061942,482.00
25.36725,-3.062180,484.00
25.39958,-3.062560,486.00
25.43289,-3.063489,488.00
25.46636,-3.064142,490.00
25.50047,-3.064789,492.00
25.53187,-3.064827,494.00
25.56272,-3.065741,496.00
25.59595,-3.065758,498.00
25.62990,-3.066061,500.00
25.66294,-3.066432,502.00
25.69589,-3.066574,504.00
25.72695,-3.067497,506.00
25.75795,-3.067932,508.00
25.79354,-3.068616,510.00
25.82649,-3.069352,512.00
25.86178,-3.070153,514.00
25.89218,-3.070420,516.00
25.92679,-3.071422,518.00
25.96108,-3.071744,520.00
25.99288,-3.072939,522.00
26.02534,-3.073224,524.00
26.05817,-3.074354,526.00
26.09013,-3.074957,528.00
26.12033,-3.075817,530.00
26.15371,-3.076711,532.00
26.18901,-3.077749,534.00
26.22346,-3.077974,536.00
26.25527,-3.078882,538.00
26.28734,-3.080011,540.00
26.32135,-3.080771,542.00
26.35438,-3.082183,544.00
26.38836,-3.083417,546.00
26.41934,-3.084439,548.00
26.45247,-3.085964,550.00
26.48514,-3.087487,552.00
26.51799,-3.088599,554.00
26.55202,-3.090151,556.00
26.58772,-3.091665,558.00
26.61821,-3.093220,560.00
26.64909,-3.094941,562.00
26.68189,-3.096909,564.00
26.71467,-3.098994,566.00
26.74732,-3.101174,568.00
26.77971,-3.103087,570.00
26.81197,-3.105349,572.00
26.84840,-3.107374,574.00
26.87919,-3.109673,576.00
26.91609,-3.113011,578.00
26.94742,-3.116268,580.00
26.98185,-3.119650,582.00
27.01545,-3.123411,584.00
27.04803,-3.127264,586.00
27.08112,-3.131751,588.00
27.11585,-3.137292,590.00
27.14920,-3.143024,592.00
27.18238,-3.149271,594.00
27.21511,-3.155891,596.00
27.24977,-3.164001,598.00
27.28129,-3.172367,600.00
27.31217,-3.181879,602.00
27.34402,-3.193386,604.00
27.37790,-3.205772,606.00
27.41016,-3.220413,608.00
27.44224,-3.237614,610.00
27.47434,-3.256748,612.00
27.50584,-3.279368,614.00
27.53945,-3.305996,616.00
27.57259,-3.336662,618.00
27.61010,-3.373747,620.00
27.64681,-3.419208,622.00
27.68008,-3.475392,624.00
27.70991,-3.544662,626.00
27.74172,-3.633223,628.00
27.77798,-3.746651,630.00
27.81129,-3.896686,632.00
27.84504,-4.094758,634.00
27.87799,-4.355798,636.00
27.91101,-4.680832,638.00
27.94413,-5.041987,640.00
27.97831,-5.442414,642.00
28.00981,-5.903267,644.00
28.04362,-6.418409,646.00
28.08083,-7.012614,648.00
28.11352,-7.663727,650.00
28.14449,-8.181510,652.00
28.17896,-8.318646,654.00
28.21382,-8.025050,656.00
28.24444,-7.428739,658.00
28.27679,-6.754865,660.00
28.31124,-6.132929,662.00
28.34337,-5.596034,664.00
28.37684,-5.144699,666.00
28.40987,-4.769972,668.00
28.44509,-4.460318,670.00
28.47634,-4.205093,672.00
28.50809,-3.995786,674.00
28.54326,-3.823723,676.00
28.57668,-3.682256,678.00
28.60902,-3.566945,680.00
28.63994,-3.471830,682.00
28.67223,-3.393228,684.00
28.70732,-3.328993,686.00
28.73907,-3.276819,688.00
28.77307,-3.233856,690.00
28.80607,-3.198898,692.00
28.83588,-3.169911,694.00
28.87036,-3.146519,696.00
28.90437,-3.127440,698.00
28.93628,-3.111503,700.00
28.97134,-3.098048,702.00
29.00551,-3.087518,704.00
29.03510,-3.079450,706.00
29.06903,-3.072482,708.00
29.10397,-3.066501,710.00
29.13975,-3.062353,712.00
29.17528,-3.059317,714.00
29.20643,-3.056829,716.00
29.23960,-3.056857,718.00
29.27308,-3.057234,720.00
29.30581,-3.057462,722.00
29.33898,-3.058093,724.00
29.37168,-3.058849,726.00
29.40542,-3.058585,728.00
29.43757,-3.057378,730.00
29.46942,-3.055724,732.00
29.50508,-3.053196,734.00
29.53899,-3.050994,736.00
29.57247,-3.048950,738.00
29.60466,-3.047004,740.00
29.63507,-3.045256,742.00
29.66878,-3.043764,744.00
29.69947,-3.042741,746.00
29.73305,-3.041842,748.00
29.76404,-3.041143,750.00
29.79865,-3.040831,752.00
29.83160,-3.040405,754.00
29.86414,-3.040181,756.00
29.89849,-3.040124,758.00
29.93174,-3.039575,760.00
29.96131,-3.039080,762.00
29.98847,-3.038203,764.00
30.02095,-3.037766,766.00
30.05634,-3.037903,768.00
30.08804,-3.038290,770.00
30.11994,-3.038762,772.00
30.15385,-3.038799,774.00
30.18374,-3.038571,776.00
30.21633,-3.037886,778.00
30.24997,-3.037491,780.00
30.28188,-3.037332,782.00
30.31543,-3.037283,784.00
30.35053,-3.037115,786.00
30.38280,-3.037199,788.00
30.41613,-3.037668,790.00
30.44991,-3.037594,792.00
30.48308,-3.037581,794.00
30.51640,-3.037719,796.00
30.54849,-3.037408,798.00
30.58030,-3.037508,800.00
30.61209,-3.037910,802.00
30.64526,-3.038064,804.00
30.68032,-3.038306,806.00
30.71364,-3.038565,808.00
30.74661,-3.038541,810.00
30.78000,-3.039132,812.00
30.81173,-3.038786,814.00
30.84537,-3.038860,816.00
30.88093,-3.038796,818.00
30.91387,-3.038881,820.00
30.94675,-3.038602,822.00
30.97865,-3.038851,824.00
31.01184,-3.038669,826.00
31.04584,-3.038625,828.00
31.07908,-3.038719,830.00
31.11471,-3.038755,832.00
31.14672,-3.038650,834.00
31.18078,-3.038714,836.00
31.21572,-3.038519,838.00
31.24915,-3.038750,840.00
31.28243,-3.038759,842.00
31.31716,-3.037933,844.00
31.35263,-3.037919,846.00
31.38469,-3.037569,848.00
31.41755,-3.036868,850.00
31.45264,-3.036163,852.00
31.48485,-3.036334,854.00
31.51799,-3.035604,856.00
31.55341,-3.034849,858.00
31.58746,-3.034564,860.00
31.61904,-3.034351,862.00
31.65056,-3.033940,864.00
31.68507,-3.033941,866.00
31.71764,-3.034147,868.00
31.75191,-3.033895,870.00
31.78664,-3.033681,872.00
31.81874,-3.034170,874.00
31.85103,-3.034586,876.00
31.88532,-3.034945,878.00
31.91746,-3.035143,880.00
31.95272,-3.035396,882.00
31.98609,-3.035530,884.00
32.01791,-3.035972,886.00
32.05040,-3.036053,888.00
32.08202,-3.035925,890.00
32.11660,-3.035324,892.00
32.15040,-3.035159,894.00
32.18382,-3.034580,896.00
32.21817,-3.034237,898.00
32.25034,-3.033454,900.00
32.28301,-3.034036,902.00
32.31647,-3.033363,904.00
32.34997,-3.033172,906.00
32.38086,-3.033715,908.00
32.41691,-3.034829,910.00
32.44943,-3.034449,912.00
32.48344,-3.034767,914.00
32.51761,-3.034293,916.00
32.54889,-3.034015,918.00
32.58325,-3.034207,920.00
32.61685,-3.034433,922.00
32.65022,-3.035002,924.00
32.68359,-3.034900,926.00
32.71662,-3.035058,928.00
32.75228,-3.035543,930.00
32.78534,-3.034935,932.00
32.81556,-3.034686,934.00
32.85141,-3.035023,936.00
32.88424,-3.034938,938.00
32.91773,-3.035477,940.00
32.95064,-3.035149,942.00
32.98485,-3.034720,944.00
33.02055,-3.034442,946.00
33.05232,-3.034431,948.00
33.08379,-3.034083,950.00
33.11605,-3.033879,952.00
33.15102,-3.033475,954.00
33.18226,-3.033408,956.00
33.21476,-3.033383,958.00
33.24944,-3.033544,960.00
33.28180,-3.033231,962.00
33.31334,-3.033251,964.00
33.34643,-3.033369,966.00
33.38104,-3.033473,968.00
33.41264,-3.033653,970.00
33.44542,-3.033873,972.00
33.48148,-3.034267,974.00
33.51487,-3.034540,976.00
33.54736,-3.034187,978.00
33.57922,-3.034169,980.00
33.61041,-3.033277,982.00
33.64562,-3.033197,984.00
33.67859,-3.033081,986.00
33.71027,-3.033568,988.00
33.74332,-3.033396,990.00
33.77976,-3.033037,992.00
33.81070,-3.032676,994.00
33.84480,-3.031982,996.00
33.87490,-3.031365,998.00
33.90838,-3.031030,1000.00
33.94135,-3.030888,1002.00
33.97464,-3.031088,1004.00
34.00892,-3.030994,1006.00
34.04058,-3.031030,1008.00
34.07491,-3.031150,1010.00
34.10864,-3.030854,1012.00
34.14145,-3.031376,1014.00
34.17449,-3.030641,1016.00
34.20751,-3.030613,1018.00
34.23983,-3.030801,1020.00
34.27330,-3.031424,1022.00
34.30620,-3.031304,1024.00
34.33929,-3.031121,1026.00
34.37251,-3.031652,1028.00
34.40735,-3.031953,1030.00
34.43764,-3.031797,1032.00
34.47059,-3.031532,1034.00
34.50280,-3.031854,1036.00
34.53581,-3.031787,1038.00
34.56818,-3.032022,1040.00
34.60243,-3.031735,1042.00
34.63614,-3.031550,1044.00
34.67038,-3.031047,1046.00
34.70444,-3.031029,1048.00
34.73429,-3.030633,1050.00
34.76666,-3.031481,1052.00
34.80120,-3.031420,1054.00
34.83470,-3.030815,1056.00
34.86784,-3.030440,1058.00
34.90009,-3.030070,1060.00
34.93433,-3.030438,1062.00
34.97029,-3.031101,1064.00
35.00116,-3.031710,1066.00
35.03685,-3.032325,1068.00
35.06856,-3.032396,1070.00
35.10109,-3.032539,1072.00
35.13604,-3.032622,1074.00
35.16926,-3.032575,1076.00
35.20216,-3.033022,1078.00
35.23499,-3.033142,1080.00
35.26906,-3.032807,1082.00
35.30060,-3.032878,1084.00
35.33285,-3.033250,1086.00
35.36488,-3.033101,1088.00
35.40109,-3.033039,1090.00
35.43370,-3.032914,1092.00
35.46675,-3.033499,1094.00
35.49989,-3.033143,1096.00
35.53339,-3.032646,1098.00
35.56580,-3.032589,1100.00
35.60066,-3.032703,1102.00
35.63209,-3.032716,1104.00
35.66624,-3.033241,1106.00
35.70159,-3.033177,1108.00
35.73478,-3.033284,1110.00
35.76837,-3.032992,1112.00
35.80256,-3.031961,1114.00
35.83468,-3.031589,1116.00
35.86939,-3.031580,1118.00
35.90155,-3.031440,1120.00
35.93513,-3.030672,1122.00
35.96900,-3.030646,1124.00
36.00117,-3.030783,1126.00
36.03443,-3.030888,1128.00
36.06683,-3.031452,1130.00
36.10179,-3.031783,1132.00
36.13265,-3.031693,1134.00
36.16611,-3.031859,1136.00
36.19987,-3.031965,1138.00
36.23367,-3.031932,1140.00
36.26662,-3.032700,1142.00
36.29764,-3.033474,1144.00
36.33012,-3.033586,1146.00
36.36363,-3.033769,1148.00
36.39814,-3.033909,1150.00
36.43233,-3.033940,1152.00
36.46675,-3.033905,1154.00
36.50032,-3.034301,1156.00
36.53244,-3.034602,1158.00
36.56410,-3.034533,1160.00
36.59631,-3.034589,1162.00
36.63173,-3.034703,1164.00
36.66548,-3.034763,1166.00
36.69743,-3.034625,1168.00
36.73094,-3.034495,1170.00
36.76461,-3.034825,1172.00
36.79882,-3.034446,1174.00
36.83237,-3.034175,1176.00
36.86369,-3.033945,1178.00
36.89656,-3.033808,1180.00
36.93027,-3.034083,1182.00
36.96349,-3.033765,1184.00
36.99715,-3.033211,1186.00
37.02903,-3.033330,1188.00
37.06165,-3.033680,1190.00
37.09545,-3.033309,1192.00
37.12881,-3.033389,1194.00
37.16308,-3.033953,1196.00
37.19516,-3.033759,1198.00
37.22788,-3.033684,1200.00
37.26015,-3.033447,1202.00
37.29410,-3.032871,1204.00
37.32515,-3.032600,1206.00
37.35919,-3.033206,1208.00
37.39091,-3.033534,1210.00
37.42508,-3.033619,1212.00
37.45847,-3.033595,1214.00
37.49083,-3.033600,1216.00
37.52343,-3.033182,1218.00
37.55924,-3.033335,1220.00
37.59260,-3.033504,1222.00
37.62492,-3.033155,1224.00
37.65816,-3.033151,1226.00
37.69077,-3.032928,1228.00
37.72609,-3.032522,1230.00
37.75696,-3.032114,1232.00
37.78610,-3.032633,1234.00
37.82285,-3.032430,1236.00
37.85338,-3.031940,1238.00
37.88716,-3.031791,1240.00
37.91955,-3.031658,1242.00
37.95308,-3.031405,1244.00
37.98644,-3.031254,1246.00
38.02302,-3.030858,1248.00
38.05370,-3.031027,1250.00
38.08691,-3.031095,1252.00
38.11910,-3.030997,1254.00
38.15189,-3.031535,1256.00
38.18430,-3.031398,1258.00
38.21651,-3.031343,1260.00
38.24812,-3.031230,1262.00
38.28299,-3.031423,1264.00
38.31815,-3.031559,1266.00
38.35006,-3.031720,1268.00
38.38516,-3.031954,1270.00
38.41871,-3.032077,1272.00
38.45048,-3.031517,1274.00
38.48290,-3.030892,1276.00
38.51658,-3.031206,1278.00
38.54900,-3.031790,1280.00
38.58421,-3.031606,1282.00
38.61607,-3.031553,1284.00
38.64882,-3.031624,1286.00
38.68213,-3.031861,1288.00
38.71243,-3.031627,1290.00
38.74481,-3.031240,1292.00
38.77922,-3.031372,1294.00
38.81096,-3.031901,1296.00
38.84265,-3.032174,1298.00
38.87705,-3.032393,1300.00
38.90873,-3.032482,1302.00
38.94284,-3.032744,1304.00
38.97717,-3.032500,1306.00
39.01035,-3.032797,1308.00
39.04561,-3.033141,1310.00
39.07747,-3.032804,1312.00
39.10837,-3.032883,1314.00
39.14286,-3.033043,1316.00
39.17452,-3.032882,1318.00
39.20692,-3.033227,1320.00
39.24067,-3.032737,1322.00
39.27677,-3.032825,1324.00
39.31037,-3.032428,1326.00
39.34345,-3.032271,1328.00
39.37596,-3.032862,1330.00
39.40810,-3.032890,1332.00
39.44053,-3.032400,1334.00
39.47328,-3.032334,1336.00
39.50739,-3.032206,1338.00
39.54206,-3.031857,1340.00
39.57366,-3.032103,1342.00
39.60672,-3.032674,1344.00
39.63770,-3.032565,1346.00
39.66994,-3.032204,1348.00
39.70431,-3.032403,1350.00
39.73768,-3.032973,1352.00
39.77030,-3.033384,1354.00
39.80372,-3.032887,1356.00
39.83491,-3.033300,1358.00
39.87061,-3.033294,1360.00
39.90347,-3.033780,1362.00
39.93745,-3.033868,1364.00
39.96928,-3.033967,1366.00
40.00179,-3.033397,1368.00
40.03622,-3.033430,1370.00
40.07042,-3.033784,1372.00
40.10489,-3.034238,1374.00
40.14019,-3.034615,1376.00
40.17108,-3.034295,1378.00
40.20251,-3.034577,1380.00
40.23440,-3.034707,1382.00
40.26715,-3.034818,1384.00
40.30042,-3.034943,1386.00
40.33458,-3.034157,1388.00
40.36749,-3.034311,1390.00
40.39968,-3.034334,1392.00
40.43335,-3.034367,1394.00
40.46673,-3.034720,1396.00
40.49991,-3.034750,1398.00
40.53145,-3.034826,1400.00
40.56609,-3.034644,1402.00
40.59851,-3.034827,1404.00
40.63222,-3.035229,1406.00
40.66391,-3.035864,1408.00
40.69626,-3.036741,1410.00
40.72972,-3.037043,1412.00
40.76418,-3.037824,1414.00
40.79620,-3.038241,1416.00
40.82721,-3.038137,1418.00
40.86053,-3.037742,1420.00
40.89442,-3.037541,1422.00
40.92679,-3.037616,1424.00
40.95863,-3.037894,1426.00
40.99208,-3.037764,1428.00
41.02648,-3.038028,1430.00
41.05824,-3.037533,1432.00
41.09233,-3.037302,1434.00
41.12438,-3.036889,1436.00
41.15950,-3.036971,1438.00
41.19552,-3.036659,1440.00
41.22985,-3.036894,1442.00
41.26027,-3.037159,1444.00
41.29541,-3.036571,1446.00
41.32595,-3.036295,1448.00
41.35837,-3.036225,1450.00
41.39321,-3.035558,1452.00
41.42602,-3.035779,1454.00
41.45863,-3.035685,1456.00
41.49131,-3.035772,1458.00
41.52613,-3.036028,1460.00
41.55940,-3.035844,1462.00
41.59093,-3.035679,1464.00
41.62463,-3.035229,1466.00
41.65776,-3.034797,1468.00
41.68778,-3.034744,1470.00
41.71924,-3.035026,1472.00
41.75242,-3.035625,1474.00
41.78656,-3.036040,1476.00
41.81846,-3.035388,1478.00
41.85182,-3.035387,1480.00
41.88376,-3.035309,1482.00
41.91732,-3.035194,1484.00
41.94998,-3.035917,1486.00
41.98293,-3.036817,1488.00
42.01315,-3.037359,1490.00
42.05118,-3.037896,1492.00
42.08472,-3.038185,1494.00
42.11870,-3.038217,1496.00
42.14986,-3.038302,1498.00
42.18321,-3.038104,1500.00
42.21656,-3.037980,1502.00
42.24872,-3.038535,1504.00
42.28110,-3.039013,1506.00
42.31552,-3.038928,1508.00
42.34880,-3.038576,1510.00
42.38252,-3.039608,1512.00
42.41473,-3.039857,1514.00
42.44980,-3.040171,1516.00
42.48274,-3.040496,1518.00
42.51509,-3.040941,1520.00
42.54832,-3.040657,1522.00
42.58143,-3.040532,1524.00
42.61395,-3.040409,1526.00
42.64493,-3.040577,1528.00
42.68022,-3.040740,1530.00
42.71567,-3.040304,1532.00
42.75056,-3.040486,1534.00
42.78440,-3.040615,1536.00
42.81476,-3.040615,1538.00
42.84930,-3.040810,1540.00
42.88239,-3.040037,1542.00
42.91340,-3.039887,1544.00
42.94688,-3.040069,1546.00
42.98127,-3.039716,1548.00
43.01593,-3.039438,1550.00
43.04728,-3.039045,1552.00
43.08200,-3.038405,1554.00
43.11438,-3.038350,1556.00
43.14728,-3.038257,1558.00
43.18029,-3.037942,1560.00
43.21264,-3.038338,1562.00
43.24690,-3.039053,1564.00
43.27933,-3.039493,1566.00
43.31102,-3.039088,1568.00
43.34456,-3.039118,1570.00
43.37837,-3.038965,1572.00
43.41331,-3.038828,1574.00
43.44588,-3.038799,1576.00
43.47933,-3.038440,1578.00
43.51214,-3.038596,1580.00
43.54387,-3.039347,1582.00
43.58061,-3.039269,1584.00
43.61601,-3.039442,1586.00
43.64871,-3.039888,1588.00
43.67970,-3.040672,1590.00
43.71439,-3.041176,1592.00
43.75042,-3.041358,1594.00
43.78215,-3.041679,1596.00
43.81353,-3.041213,1598.00
43.84625,-3.041336,1600.00
43.88124,-3.040801,1602.00
43.91411,-3.040854,1604.00
43.94608,-3.040518,1606.00
43.97857,-3.040377,1608.00
44.01270,-3.039955,1610.00
44.04571,-3.040033,1612.00
44.07862,-3.040799,1614.00
44.11112,-3.041581,1616.00
44.14468,-3.042530,1618.00
44.17753,-3.043333,1620.00
44.21059,-3.043358,1622.00
44.24240,-3.043535,1624.00
44.27534,-3.043592,1626.00
44.31021,-3.043910,1628.00
44.34464,-3.044288,1630.00
44.37664,-3.044047,1632.00
44.40858,-3.044557,1634.00
44.44387,-3.044202,1636.00
44.47898,-3.044204,1638.00
44.51082,-3.044398,1640.00
44.54186,-3.044175,1642.00
44.57744,-3.044245,1644.00
44.60944,-3.044105,1646.00
44.64312,-3.043325,1648.00
44.67578,-3.043106,1650.00
44.70800,-3.043075,1652.00
44.74122,-3.042639,1654.00
44.77524,-3.042430,1656.00
44.80644,-3.042574,1658.00
44.83744,-3.043144,1660.00
44.87500,-3.043018,1662.00
44.90842,-3.042672,1664.00
44.94295,-3.042609,1666.00
44.97482,-3.042690,1668.00
45.00752,-3.042829,1670.00
45.03901,-3.042942,1672.00
45.07312,-3.043442,1674.00
45.10902,-3.044042,1676.00
45.14440,-3.044295,1678.00
45.17454,-3.044505,1680.00
45.20390,-3.044812,1682.00
45.23970,-3.045081,1684.00
45.27299,-3.045161,1686.00
45.30339,-3.045936,1688.00
45.33613,-3.046332,1690.00
45.37180,-3.046310,1692.00
45.40293,-3.046739,1694.00
45.43674,-3.046801,1696.00
45.47015,-3.046598,1698.00
45.50568,-3.046727,1700.00
45.53761,-3.046836,1702.00
45.56862,-3.047125,1704.00
45.60199,-3.047110,1706.00
45.63765,-3.047504,1708.00
45.66946,-3.048108,1710.00
45.70257,-3.048181,1712.00
45.73624,-3.048375,1714.00
45.77061,-3.048397,1716.00
45.80393,-3.048486,1718.00
45.83724,-3.048354,1720.00
45.87098,-3.048463,1722.00
45.90532,-3.048597,1724.00
45.93866,-3.048460,1726.00
45.97288,-3.048874,1728.00
46.00429,-3.049071,1730.00
46.03737,-3.048991,1732.00
46.07206,-3.048804,1734.00
46.10375,-3.048526,1736.00
46.13619,-3.048697,1738.00
46.16830,-3.048757,1740.00
46.20011,-3.049184,1742.00
46.23218,-3.049328,1744.00
46.26437,-3.049912,1746.00
46.29745,-3.049954,1748.00
46.33036,-3.049971,1750.00
46.36608,-3.049982,1752.00
46.39943,-3.050129,1754.00
46.43244,-3.051158,1756.00
46.46375,-3.051443,1758.00
46.49629,-3.051877,1760.00
46.53086,-3.051906,1762.00
46.56476,-3.052012,1764.00
46.59908,-3.052243,1766.00
46.63086,-3.052536,1768.00
46.66355,-3.052438,1770.00
46.69675,-3.051979,1772.00
46.73086,-3.051919,1774.00
46.76287,-3.052146,1776.00
46.79761,-3.052228,1778.00
46.83078,-3.051935,1780.00
46.86538,-3.051276,1782.00
46.89721,-3.050910,1784.00
46.93033,-3.051215,1786.00
46.96251,-3.050880,1788.00
46.99630,-3.050381,1790.00
47.02911,-3.050462,1792.00
47.06241,-3.050499,1794.00
47.09885,-3.051111,1796.00
47.12984,-3.051709,1798.00
47.16230,-3.051780,1800.00
47.19824,-3.052026,1802.00
47.23338,-3.051802,1804.00
47.26436,-3.050898,1806.00
47.29464,-3.050671,1808.00
47.32880,-3.050388,1810.00
47.36415,-3.050305,1812.00
47.39711,-3.050539,1814.00
47.42981,-3.051020,1816.00
47.46449,-3.051537,1818.00
47.49734,-3.052310,1820.00
47.53128,-3.052212,1822.00
47.56289,-3.052429,1824.00
47.59598,-3.052877,1826.00
47.62985,-3.053599,1828.00
47.66169,-3.053894,1830.00
47.69542,-3.054040,1832.00
47.72984,-3.054313,1834.00
47.76212,-3.054632,1836.00
47.79218,-3.054735,1838.00
47.82714,-3.055543,1840.00
47.86308,-3.056131,1842.00
47.89572,-3.056544,1844.00
47.92884,-3.056906,1846.00
47.96250,-3.057360,1848.00
47.99270,-3.057354,1850.00
48.02743,-3.056838,1852.00
48.06162,-3.056774,1854.00
48.09571,-3.057048,1856.00
48.12655,-3.057430,1858.00
48.15816,-3.057898,1860.00
48.19288,-3.057660,1862.00
48.22888,-3.058146,1864.00
48.25996,-3.058018,1866.00
48.29201,-3.057610,1868.00
48.32454,-3.057822,1870.00
48.36119,-3.057414,1872.00
48.39388,-3.057602,1874.00
48.42699,-3.057667,1876.00
48.45944,-3.057335,1878.00
48.49264,-3.057131,1880.00
48.52332,-3.056772,1882.00
48.55831,-3.057019,1884.00
48.59144,-3.056931,1886.00
48.62593,-3.056960,1888.00
48.65873,-3.056902,1890.00
48.69022,-3.057065,1892.00
48.72239,-3.056628,1894.00
48.75681,-3.056996,1896.00
48.78907,-3.057387,1898.00
48.82520,-3.057595,1900.00
48.85854,-3.058628,1902.00
48.89121,-3.059167,1904.00
48.92585,-3.059449,1906.00
48.95948,-3.059665,1908.00
48.99276,-3.059258,1910.00
49.02552,-3.058896,1912.00
49.05625,-3.058687,1914.00
49.08990,-3.058824,1916.00
49.12466,-3.059879,1918.00
49.15762,-3.060615,1920.00
49.18936,-3.060615,1922.00
49.22230,-3.061609,1924.00
49.25551,-3.061494,1926.00
49.29100,-3.062428,1928.00
49.32297,-3.063335,1930.00
49.35580,-3.062710,1932.00
49.38558,-3.063600,1934.00
49.41970,-3.063499,1936.00
49.45125,-3.064006,1938.00
49.48218,-3.064897,1940.00
49.51256,-3.064859,1942.00
49.54843,-3.064986,1944.00
49.58394,-3.064950,1946.00
49.61476,-3.064831,1948.00
49.64679,-3.064358,1950.00
49.68104,-3.064283,1952.00
49.71606,-3.063603,1954.00
49.74683,-3.063584,1956.00
49.78049,-3.063780,1958.00
49.81216,-3.063987,1960.00
49.84382,-3.064106,1962.00
49.87934,-3.063907,1964.00
49.91185,-3.063673,1966.00
49.94707,-3.063645,1968.00
49.98128,-3.062913,1970.00
50.01158,-3.063120,1972.00
50.04495,-3.064125,1974.00
50.07645,-3.064805,1976.00
50.11096,-3.065485,1978.00
50.14583,-3.065672,1980.00
50.17897,-3.065748,1982.00
50.21117,-3.065849,1984.00
50.24576,-3.065501,1986.00
50.27873,-3.065271,1988.00
50.31252,-3.065602,1990.00
50.34607,-3.065481,1992.00
50.37931,-3.065744,1994.00
50.41263,-3.066416,1996.00
50.44502,-3.066787,1998.00
50.47826,-3.067450,2000.00
50.51113,-3.067888,2002.00
50.54469,-3.068518,2004.00
50.58154,-3.069016,2006.00
50.61326,-3.069228,2008.00
50.64770,-3.069495,2010.00
50.67925,-3.069977,2012.00
50.71101,-3.070651,2014.00
50.74495,-3.071349,2016.00
50.77609,-3.071184,2018.00
50.81182,-3.071140,2020.00
50.84354,-3.071086,2022.00
50.88173,-3.070588,2024.00
50.91531,-3.070163,2026.00
50.94742,-3.070498,2028.00
50.97712,-3.070255,2030.00
51.01475,-3.070308,2032.00
51.04532,-3.070414,2034.00
51.07821,-3.069802,2036.00
51.11260,-3.069560,2038.00
51.14527,-3.069609,2040.00
51.17658,-3.069901,2042.00
51.21194,-3.070298,2044.00
51.24584,-3.070640,2046.00
51.27882,-3.070952,2048.00
51.31198,-3.071523,2050.00
51.34405,-3.072180,2052.00
51.37691,-3.072305,2054.00
51.41119,-3.071884,2056.00
51.44359,-3.071479,2058.00
51.47674,-3.070995,2060.00
51.51181,-3.070658,2062.00
51.54464,-3.071320,2064.00
51.57983,-3.071732,2066.00
51.61515,-3.072717,2068.00
51.64884,-3.073483,2070.00
51.68096,-3.074395,2072.00
51.71371,-3.074777,2074.00
51.74400,-3.075521,2076.00
51.77562,-3.075669,2078.00
51.80924,-3.076535,2080.00
51.84395,-3.077226,2082.00
51.87793,-3.077440,2084.00
51.91025,-3.077705,2086.00
51.94430,-3.077670,2088.00
51.97659,-3.078141,2090.00
52.00904,-3.078508,2092.00
52.04226,-3.078326,2094.00
52.07674,-3.078525,2096.00
52.10859,-3.077935,2098.00
52.14241,-3.077711,2100.00
52.17383,-3.077719,2102.00
52.20693,-3.077730,2104.00
52.24138,-3.078119,2106.00
52.27517,-3.078394,2108.00
52.30872,-3.078856,2110.00
52.34320,-3.079928,2112.00
52.37360,-3.079903,2114.00
52.40710,-3.079173,2116.00
52.44236,-3.079341,2118.00
52.47631,-3.079038,2120.00
52.50773,-3.079194,2122.00
52.54170,-3.079075,2124.00
52.57432,-3.078634,2126.00
52.60777,-3.079182,2128.00
52.63970,-3.078988,2130.00
52.67332,-3.079628,2132.00
52.70601,-3.080662,2134.00
52.73923,-3.080918,2136.00
52.77378,-3.080588,2138.00
52.80581,-3.080589,2140.00
52.83720,-3.080996,2142.00
52.87147,-3.081619,2144.00
52.90400,-3.082296,2146.00
52.93594,-3.082758,2148.00
52.96927,-3.083278,2150.00
53.00394,-3.083163,2152.00
53.03635,-3.083858,2154.00
53.07206,-3.083767,2156.00
53.10495,-3.084148,2158.00
53.13827,-3.083948,2160.00
53.16955,-3.083303,2162.00
53.20392,-3.083212,2164.00
53.23549,-3.083293,2166.00
53.26899,-3.083152,2168.00
53.30258,-3.082817,2170.00
53.33758,-3.082491,2172.00
53.36866,-3.083098,2174.00
53.40003,-3.083257,2176.00
53.43125,-3.083803,2178.00
53.46591,-3.084695,2180.00
53.49701,-3.084968,2182.00
53.53064,-3.085533,2184.00
53.56197,-3.085426,2186.00
53.59644,-3.085486,2188.00
53.63073,-3.086738,2190.00
53.66281,-3.087397,2192.00
53.69590,-3.088873,2194.00
53.73006,-3.089174,2196.00
53.76592,-3.089376,2198.00
53.79775,-3.089598,2200.00
53.83287,-3.090092,2202.00
53.86449,-3.089890,2204.00
53.89545,-3.089320,2206.00
53.93052,-3.089067,2208.00
53.96605,-3.089623,2210.00
53.99723,-3.089613,2212.00
54.03081,-3.089713,2214.00
54.06258,-3.090295,2216.00
54.09422,-3.090742,2218.00
54.12858,-3.091779,2220.00
54.16185,-3.092334,2222.00
54.19557,-3.092684,2224.00
54.22757,-3.093018,2226.00
54.25876,-3.092813,2228.00
54.29516,-3.092989,2230.00
54.32919,-3.093584,2232.00
54.36080,-3.093299,2234.00
54.39427,-3.093199,2236.00
54.42924,-3.093064,2238.00
54.46312,-3.093263,2240.00
54.49567,-3.093840,2242.00
54.52831,-3.093698,2244.00
54.56200,-3.093757,2246.00
54.59325,-3.094102,2248.00
54.62666,-3.094175,2250.00
54.66103,-3.093958,2252.00
54.69358,-3.094268,2254.00
54.72623,-3.094186,2256.00
54.76048,-3.094262,2258.00
54.79243,-3.094556,2260.00
54.82434,-3.094357,2262.00
54.85886,-3.094250,2264.00
54.89189,-3.094556,2266.00
54.92383,-3.094663,2268.00
54.95763,-3.094868,2270.00
54.99354,-3.095081,2272.00
55.02797,-3.095049,2274.00
55.06052,-3.095359,2276.00
55.09164,-3.096347,2278.00
55.12574,-3.097093,2280.00
55.15787,-3.097694,2282.00
55.19104,-3.097972,2284.00
55.22395,-3.097758,2286.00
55.25979,-3.096970,2288.00
55.29288,-3.096776,2290.00
55.32601,-3.097076,2292.00
55.35852,-3.097302,2294.00
55.39278,-3.098343,2296.00
55.42619,-3.099486,2298.00
55.46155,-3.100270,2300.00
55.49386,-3.100507,2302.00
55.52567,-3.100779,2304.00
55.56151,-3.100977,2306.00
55.59610,-3.100806,2308.00
55.62721,-3.100451,2310.00
55.65941,-3.100400,2312.00
55.69118,-3.100018,2314.00
55.72684,-3.099929,2316.00
55.75659,-3.100063,2318.00
55.79065,-3.100584,2320.00
55.82563,-3.101307,2322.00
55.85682,-3.102061,2324.00
55.88990,-3.102642,2326.00
55.92181,-3.103209,2328.00
55.95543,-3.103734,2330.00
55.98897,-3.103901,2332.00
56.02004,-3.103997,2334.00
56.05278,-3.104440,2336.00
56.08424,-3.104812,2338.00
56.12073,-3.105154,2340.00
56.15363,-3.105544,2342.00
56.18714,-3.105781,2344.00
56.22004,-3.105948,2346.00
56.25355,-3.105015,2348.00
56.28689,-3.105423,2350.00
56.31812,-3.105855,2352.00
56.35392,-3.105983,2354.00
56.38822,-3.106177,2356.00
56.42044,-3.106087,2358.00
56.45103,-3.106299,2360.00
56.48570,-3.106414,2362.00
56.51976,-3.107022,2364.00
56.55484,-3.108188,2366.00
56.58525,-3.108997,2368.00
56.61869,-3.109389,2370.00
56.65131,-3.109209,2372.00
56.68305,-3.110503,2374.00
56.71662,-3.112000,2376.00
56.75189,-3.112567,2378.00
56.78181,-3.112819,2380.00
56.81419,-3.113126,2382.00
56.84637,-3.113411,2384.00
56.87945,-3.112977,2386.00
56.91133,-3.113757,2388.00
56.94413,-3.113576,2390.00
56.97721,-3.112919,2392.00
57.00698,-3.113600,2394.00
57.03956,-3.113852,2396.00
57.07389,-3.114201,2398.00
57.10600,-3.114014,2400.00
57.13869,-3.114459,2402.00
57.17215,-3.115416,2404.00
57.20510,-3.115841,2406.00
57.23660,-3.116700,2408.00
57.27073,-3.117318,2410.00
57.30103,-3.117569,2412.00
57.33519,-3.117567,2414.00
57.36477,-3.117070,2416.00
57.39849,-3.117317,2418.00
57.43023,-3.117918,2420.00
57.46482,-3.118091,2422.00
57.49746,-3.118447,2424.00
57.52924,-3.118933,2426.00
57.56203,-3.119061,2428.00
57.59623,-3.118995,2430.00
57.62949,-3.119140,2432.00
57.66062,-3.119701,2434.00
57.69636,-3.120734,2436.00
57.73004,-3.122102,2438.00
57.76291,-3.123739,2440.00
57.79425,-3.124127,2442.00
57.82714,-3.125132,2444.00
57.85980,-3.125271,2446.00
57.89262,-3.124877,2448.00
57.92847,-3.125397,2450.00
57.96210,-3.126165,2452.00
57.99566,-3.126804,2454.00
58.03003,-3.127524,2456.00
58.06187,-3.128232,2458.00
58.09345,-3.127912,2460.00
58.12738,-3.128398,2462.00
58.15930,-3.128790,2464.00
58.19286,-3.129018,2466.00
58.22695,-3.129307,2468.00
58.25930,-3.129503,2470.00
58.29336,-3.129366,2472.00
58.32724,-3.129341,2474.00
58.36269,-3.129623,2476.00
58.39601,-3.129474,2478.00
58.42756,-3.130358,2480.00
58.46065,-3.131052,2482.00
58.49294,-3.131438,2484.00
58.52509,-3.131192,2486.00
58.55806,-3.131274,2488.00
58.59220,-3.131664,2490.00
58.62311,-3.131797,2492.00
58.65714,-3.132149,2494.00
58.68867,-3.132375,2496.00
58.72351,-3.133051,2498.00
58.75601,-3.133372,2500.00
58.78909,-3.133306,2502.00
58.82062,-3.133834,2504.00
58.85086,-3.135044,2506.00
58.88555,-3.136005,2508.00
58.91994,-3.136587,2510.00
58.95453,-3.136389,2512.00
58.98783,-3.136323,2514.00
59.01893,-3.136522,2516.00
59.05157,-3.136631,2518.00
59.08423,-3.137243,2520.00
59.11832,-3.137368,2522.00
59.15087,-3.137909,2524.00
59.18298,-3.138656,2526.00
59.21759,-3.139464,2528.00
59.25249,-3.140238,2530.00
59.28584,-3.140886,2532.00
59.31889,-3.141171,2534.00
59.35101,-3.141559,2536.00
59.38494,-3.141480,2538.00
59.42087,-3.141332,2540.00
59.45424,-3.141139,2542.00
59.48725,-3.141355,2544.00
59.51944,-3.141078,2546.00
59.55386,-3.140874,2548.00
59.58561,-3.141319,2550.00
59.61834,-3.142050,2552.00
59.65285,-3.142379,2554.00
59.68584,-3.142827,2556.00
59.72095,-3.143397,2558.00
59.75364,-3.143806,2560.00
59.78642,-3.144088,2562.00
59.81802,-3.144819,2564.00
59.85055,-3.145760,2566.00
59.88634,-3.146160,2568.00
59.91795,-3.146694,2570.00
59.95252,-3.147471,2572.00
59.98779,-3.148162,2574.00
60.01818,-3.148775,2576.00
60.05218,-3.148979,2578.00
60.08352,-3.150116,2580.00
60.11673,-3.150487,2582.00
60.15058,-3.150303,2584.00
60.18395,-3.150251,2586.00
60.21782,-3.149397,2588.00
60.24981,-3.149257,2590.00
60.28254,-3.149414,2592.00
60.31655,-3.149898,2594.00
60.35016,-3.150091,2596.00
60.38132,-3.150753,2598.00
60.41302,-3.151214,2600.00
60.44581,-3.151685,2602.00
60.48136,-3.152541,2604.00
60.51448,-3.153492,2606.00
60.55086,-3.154006,2608.00
60.58276,-3.154975,2610.00
60.61619,-3.155287,2612.00
60.64736,-3.155772,2614.00
60.68168,-3.156623,2616.00
60.71484,-3.157385,2618.00
60.74768,-3.157964,2620.00
60.78161,-3.158565,2622.00
60.81551,-3.158356,2624.00
60.84603,-3.159154,2626.00
60.87875,-3.159566,2628.00
60.91244,-3.159946,2630.00
60.94657,-3.160008,2632.00
60.97903,-3.160086,2634.00
61.01299,-3.159926,2636.00
61.04583,-3.159828,2638.00
61.07923,-3.159881,2640.00
61.11031,-3.159789,2642.00
61.14494,-3.160571,2644.00
61.17588,-3.161289,2646.00
61.20916,-3.162154,2648.00
61.24204,-3.162138,2650.00
61.27251,-3.161841,2652.00
61.30424,-3.162614,2654.00
61.33988,-3.163450,2656.00
61.37540,-3.164203,2658.00
61.41020,-3.164962,2660.00
61.44320,-3.166415,2662.00
61.47576,-3.167468,2664.00
61.50566,-3.167832,2666.00
61.54039,-3.168673,2668.00
61.57343,-3.170341,2670.00
61.60765,-3.171148,2672.00
61.64029,-3.171704,2674.00
61.67469,-3.172180,2676.00
61.70793,-3.172327,2678.00
61.73893,-3.172903,2680.00
61.77263,-3.172657,2682.00
61.80517,-3.173313,2684.00
61.83801,-3.173974,2686.00
61.87194,-3.174644,2688.00
61.90693,-3.174875,2690.00
61.94046,-3.175248,2692.00
61.97186,-3.175998,2694.00
62.00483,-3.176478,2696.00
62.03645,-3.176785,2698.00
62.06889,-3.177870,2700.00
62.10304,-3.178796,2702.00
62.13770,-3.179751,2704.00
62.16982,-3.180304,2706.00
62.20248,-3.180981,2708.00
62.23534,-3.182024,2710.00
62.27155,-3.182650,2712.00
62.30368,-3.183353,2714.00
62.33587,-3.183751,2716.00
62.36952,-3.184831,2718.00
62.40332,-3.184661,2720.00
62.43651,-3.185204,2722.00
62.46911,-3.185872,2724.00
62.50376,-3.185503,2726.00
62.53672,-3.185545,2728.00
62.56898,-3.186307,2730.00
62.60390,-3.186254,2732.00
62.63607,-3.187177,2734.00
62.67111,-3.188544,2736.00
62.70167,-3.189545,2738.00
62.73531,-3.189870,2740.00
62.76829,-3.190959,2742.00
62.80129,-3.191914,2744.00
62.83395,-3.192792,2746.00
62.86777,-3.194063,2748.00
62.90114,-3.194968,2750.00
62.93581,-3.196780,2752.00
62.96774,-3.197344,2754.00
63.00088,-3.197737,2756.00
63.03277,-3.198549,2758.00
63.06802,-3.199235,2760.00
63.10298,-3.199659,2762.00
63.13496,-3.200399,2764.00
63.16683,-3.201306,2766.00
63.20179,-3.201656,2768.00
63.23606,-3.201909,2770.00
63.26706,-3.202087,2772.00
63.30141,-3.202980,2774.00
63.33529,-3.203398,2776.00
63.36916,-3.203430,2778.00
63.40202,-3.203444,2780.00
63.43639,-3.204524,2782.00
63.47206,-3.205175,2784.00
63.50343,-3.206246,2786.00
63.53595,-3.207382,2788.00
63.56865,-3.207886,2790.00
63.60500,-3.208168,2792.00
63.63980,-3.209559,2794.00
63.67281,-3.210444,2796.00
63.70400,-3.210772,2798.00
63.73541,-3.210807,2800.00
63.77097,-3.211246,2802.00
63.80471,-3.212131,2804.00
63.83582,-3.212391,2806.00
63.86768,-3.212883,2808.00
63.89929,-3.212693,2810.00
63.93403,-3.213440,2812.00
63.96743,-3.214322,2814.00
63.99851,-3.215152,2816.00
64.03610,-3.216400,2818.00
64.06844,-3.216820,2820.00
64.09900,-3.217425,2822.00
64.13284,-3.217788,2824.00
64.16847,-3.218510,2826.00
64.20075,-3.218587,2828.00
64.23583,-3.219191,2830.00
64.27050,-3.219714,2832.00
64.30285,-3.220521,2834.00
64.33696,-3.221716,2836.00
64.36972,-3.221813,2838.00
64.40290,-3.223014,2840.00
64.43595,-3.224103,2842.00
64.46780,-3.225150,2844.00
64.50019,-3.226073,2846.00
64.53428,-3.226977,2848.00
64.56920,-3.228094,2850.00
64.60253,-3.228571,2852.00
64.63313,-3.229049,2854.00
64.66735,-3.229728,2856.00
64.69873,-3.231055,2858.00
64.73038,-3.231447,2860.00
64.76707,-3.231794,2862.00
64.79922,-3.231981,2864.00
64.83025,-3.232129,2866.00
64.86214,-3.232678,2868.00
64.89734,-3.233265,2870.00
64.93089,-3.233577,2872.00
64.96418,-3.234103,2874.00
65.00027,-3.234454,2876.00
65.03199,-3.235016,2878.00
65.06451,-3.235414,2880.00
65.09917,-3.236011,2882.00
65.13162,-3.237387,2884.00
65.16346,-3.238088,2886.00
65.19406,-3.239190,2888.00
65.22727,-3.239119,2890.00
65.25878,-3.239821,2892.00
65.29166,-3.240980,2894.00
65.32647,-3.242065,2896.00
65.35770,-3.243787,2898.00
65.39127,-3.244502,2900.00
65.42557,-3.245121,2902.00
65.45981,-3.246840,2904.00
65.49044,-3.247758,2906.00
65.52621,-3.248995,2908.00
65.55960,-3.250165,2910.00
65.58950,-3.251614,2912.00
65.62298,-3.252887,2914.00
65.65642,-3.253460,2916.00
65.69197,-3.253820,2918.00
65.72729,-3.253676,2920.00
65.76122,-3.254370,2922.00
65.79166,-3.255007,2924.00
65.82407,-3.255697,2926.00
65.85869,-3.256535,2928.00
65.89275,-3.257123,2930.00
65.92499,-3.258486,2932.00
65.95647,-3.259657,2934.00
65.98870,-3.261241,2936.00
66.02430,-3.262384,2938.00
66.05908,-3.263274,2940.00
66.09393,-3.264732,2942.00
66.12621,-3.265772,2944.00
66.15762,-3.266618,2946.00
66.19142,-3.267069,2948.00
66.22577,-3.267958,2950.00
66.25823,-3.268755,2952.00
66.28958,-3.269345,2954.00
66.32375,-3.270080,2956.00
66.35695,-3.270449,2958.00
66.38980,-3.270727,2960.00
66.42364,-3.271121,2962.00
66.45825,-3.272652,2964.00
66.49127,-3.273261,2966.00
66.52225,-3.273023,2968.00
66.55696,-3.273489,2970.00
66.59180,-3.274350,2972.00
66.62113,-3.275036,2974.00
66.65332,-3.275980,2976.00
66.68858,-3.276829,2978.00
66.72064,-3.278079,2980.00
66.75314,-3.279310,2982.00
66.78681,-3.279978,2984.00
66.82001,-3.280878,2986.00
66.85073,-3.282078,2988.00
66.88575,-3.282276,2990.00
66.91882,-3.282084,2992.00
66.95135,-3.282414,2994.00
66.97972,-3.282850,2996.00
67.01483,-3.283304,2998.00
67.04860,-3.283766,3000.00
67.08095,-3.284589,3002.00
67.11456,-3.285929,3004.00
67.14951,-3.287088,3006.00
67.18497,-3.288166,3008.00
67.21687,-3.289145,3010.00
67.25031,-3.290553,3012.00
67.28513,-3.291872,3014.00
67.31821,-3.293386,3016.00
67.35045,-3.294680,3018.00
67.38592,-3.295117,3020.00
67.41965,-3.295801,3022.00
67.45348,-3.296729,3024.00
67.48756,-3.297656,3026.00
67.51973,-3.298720,3028.00
67.55207,-3.299171,3030.00
67.58501,-3.299536,3032.00
67.61891,-3.300299,3034.00
67.65263,-3.301214,3036.00
67.68548,-3.301854,3038.00
67.71659,-3.302936,3040.00
67.75077,-3.304328,3042.00
67.78244,-3.305395,3044.00
67.81622,-3.306826,3046.00
67.84953,-3.307365,3048.00
67.88293,-3.308971,3050.00
67.91584,-3.309308,3052.00
67.95045,-3.309935,3054.00
67.98279,-3.310734,3056.00
68.01431,-3.310974,3058.00
68.04852,-3.311615,3060.00
68.08188,-3.312457,3062.00
68.11713,-3.313157,3064.00
68.14847,-3.313298,3066.00
68.18188,-3.313915,3068.00
68.21536,-3.314775,3070.00
68.24959,-3.316042,3072.00
68.28124,-3.317029,3074.00
68.31479,-3.318126,3076.00
68.34887,-3.319122,3078.00
68.38269,-3.320066,3080.00
68.41313,-3.321306,3082.00
68.44837,-3.321959,3084.00
68.48157,-3.323233,3086.00
68.51458,-3.324681,3088.00
68.54614,-3.325654,3090.00
68.57972,-3.325605,3092.00
68.61528,-3.325546,3094.00
68.64730,-3.326429,3096.00
68.67921,-3.327624,3098.00
68.71267,-3.328055,3100.00
68.74578,-3.328568,3102.00
68.77947,-3.329533,3104.00
68.81225,-3.329487,3106.00
68.84380,-3.329547,3108.00
68.87788,-3.329881,3110.00
68.91100,-3.331367,3112.00
68.94326,-3.333173,3114.00
68.97785,-3.334184,3116.00
69.01089,-3.335288,3118.00
69.04310,-3.336297,3120.00
69.07500,-3.337348,3122.00
69.10671,-3.338095,3124.00
69.13771,-3.338884,3126.00
69.17400,-3.339158,3128.00
69.20839,-3.340372,3130.00
69.24214,-3.341703,3132.00
69.27410,-3.343305,3134.00
69.30988,-3.343776,3136.00
69.34018,-3.345579,3138.00
69.37201,-3.347050,3140.00
69.40723,-3.347370,3142.00
69.43994,-3.347868,3144.00
69.47406,-3.348809,3146.00
69.50786,-3.349329,3148.00
69.54081,-3.350607,3150.00
69.57431,-3.351952,3152.00
69.60599,-3.353919,3154.00
69.63843,-3.354323,3156.00
69.67340,-3.355113,3158.00
69.70538,-3.355624,3160.00
69.73864,-3.356823,3162.00
69.77201,-3.357967,3164.00
69.80397,-3.358386,3166.00
69.83915,-3.359089,3168.00
69.86965,-3.359635,3170.00
69.90628,-3.359796,3172.00
69.93951,-3.360162,3174.00
69.97097,-3.360274,3176.00
70.00287,-3.361796,3178.00
70.03639,-3.362849,3180.00
70.06905,-3.363621,3182.00
70.10318,-3.363993,3184.00
70.13513,-3.365214,3186.00
70.17118,-3.365530,3188.00
70.20248,-3.366394,3190.00
70.23666,-3.367657,3192.00
70.26854,-3.369145,3194.00
70.30262,-3.371017,3196.00
70.33619,-3.372641,3198.00
70.36947,-3.373811,3200.00
70.40177,-3.375537,3202.00
70.43577,-3.376987,3204.00
70.46897,-3.377451,3206.00
70.50366,-3.378067,3208.00
70.53663,-3.379745,3210.00
70.57256,-3.380763,3212.00
70.60629,-3.381500,3214.00
70.63671,-3.382336,3216.00
70.66714,-3.382983,3218.00
70.70147,-3.382687,3220.00
70.73396,-3.383719,3222.00
70.76793,-3.384233,3224.00
70.80026,-3.385356,3226.00
70.83484,-3.386639,3228.00
70.86810,-3.387675,3230.00
70.90315,-3.388172,3232.00
70.93642,-3.388528,3234.00
70.97053,-3.389608,3236.00
71.00415,-3.390636,3238.00
71.03843,-3.392341,3240.00
71.07163,-3.393367,3242.00
71.10688,-3.394282,3244.00
71.13957,-3.395077,3246.00
71.17288,-3.395787,3248.00
71.20491,-3.397563,3250.00
71.23891,-3.399168,3252.00
71.27326,-3.400656,3254.00
71.30747,-3.402529,3256.00
71.34185,-3.403432,3258.00
71.37358,-3.404203,3260.00
71.40757,-3.404169,3262.00
71.43985,-3.405187,3264.00
71.47308,-3.406484,3266.00
71.50656,-3.407344,3268.00
71.54000,-3.408929,3270.00
71.57287,-3.409567,3272.00
71.60612,-3.410455,3274.00
71.63732,-3.411540,3276.00
71.67111,-3.411760,3278.00
71.70493,-3.412002,3280.00
71.73698,-3.412910,3282.00
71.76806,-3.414436,3284.00
71.80088,-3.416117,3286.00
71.83564,-3.417554,3288.00
71.86641,-3.418514,3290.00
71.90132,-3.419769,3292.00
71.93213,-3.420288,3294.00
71.96401,-3.420765,3296.00
72.00171,-3.420622,3298.00
72.03506,-3.421593,3300.00
72.06676,-3.421951,3302.00
72.10083,-3.422181,3304.00
72.13388,-3.422472,3306.00
72.16498,-3.423457,3308.00
72.19924,-3.423890,3310.00
72.23364,-3.424248,3312.00
72.26567,-3.424801,3314.00
72.29930,-3.425564,3316.00
72.33198,-3.425287,3318.00
72.36358,-3.425400,3320.00
72.39771,-3.425117,3322.00
72.43084,-3.425933,3324.00
72.46447,-3.426231,3326.00
72.49726,-3.426930,3328.00
72.53193,-3.427420,3330.00
72.56182,-3.427658,3332.00
72.59688,-3.428177,3334.00
72.62940,-3.428019,3336.00
72.66401,-3.429123,3338.00
72.69706,-3.428713,3340.00
72.72986,-3.428763,3342.00
72.76255,-3.428121,3344.00
72.79533,-3.428172,3346.00
72.82956,-3.427652,3348.00
72.86255,-3.426836,3350.00
72.89394,-3.425517,3352.00
72.92928,-3.422780,3354.00
72.96148,-3.419098,3356.00
72.99437,-3.414482,3358.00
73.02775,-3.409182,3360.00
73.05583,-3.402658,3362.00
73.08985,-3.394229,3364.00
73.12395,-3.383191,3366.00
73.15803,-3.367833,3368.00
73.19172,-3.346487,3370.00
73.22583,-3.316789,3372.00
73.25587,-3.274863,3374.00
73.28880,-3.215880,3376.00
73.32271,-3.132288,3378.00
73.35858,-3.011712,3380.00
73.39125,-2.839452,3382.00
73.42580,-2.584618,3384.00
73.45687,-2.194247,3386.00
73.48944,-1.599210,3388.00
73.51988,-0.748785,3390.00
73.55410,0.291749,3392.00
73.58833,1.206321,3394.00
73.62032,1.508046,3396.00
73.65142,1.143885,3398.00
73.68565,0.405448,3400.00
73.71996,-0.377977,3402.00
73.75169,-1.038668,3404.00
73.78554,-1.557505,3406.00
73.81770,-1.959763,3408.00
73.85050,-2.275118,3410.00
73.88481,-2.524005,3412.00
73.91844,-2.720774,3414.00
73.95171,-2.878429,3416.00
73.98359,-3.003738,3418.00
74.01896,-3.102163,3420.00
74.05328,-3.181810,3422.00
74.08587,-3.246093,3424.00
74.12274,-3.298106,3426.00
74.15492,-3.339850,3428.00
74.18781,-3.373281,3430.00
74.22108,-3.399806,3432.00
74.25304,-3.421658,3434.00
74.28881,-3.437931,3436.00
74.32235,-3.450576,3438.00
74.35540,-3.461326,3440.00
74.38724,-3.469996,3442.00
74.41894,-3.476541,3444.00
74.45445,-3.480045,3446.00
74.48884,-3.483475,3448.00
74.52164,-3.485605,3450.00
74.55338,-3.486687,3452.00
74.58698,-3.487304,3454.00
74.61777,-3.487452,3456.00
74.65255,-3.487757,3458.00
74.68592,-3.486245,3460.00
74.71780,-3.484919,3462.00
74.75256,-3.483391,3464.00
74.78638,-3.481304,3466.00
74.81944,-3.479047,3468.00
74.85296,-3.475497,3470.00
74.88387,-3.471294,3472.00
74.91887,-3.466263,3474.00
74.95194,-3.460813,3476.00
74.98281,-3.453561,3478.00
75.01751,-3.446095,3480.00
75.05240,-3.436658,3482.00
75.08800,-3.425567,3484.00
75.12143,-3.412791,3486.00
75.15271,-3.397066,3488.00
75.18732,-3.379010,3490.00
75.22024,-3.357486,3492.00
75.25244,-3.331545,3494.00
75.28630,-3.300244,3496.00
75.31819,-3.262892,3498.00
75.35205,-3.216609,3500.00
75.38431,-3.158479,3502.00
75.41610,-3.085747,3504.00
75.45011,-2.991278,3506.00
75.48318,-2.865799,3508.00
75.51630,-2.697264,3510.00
75.54934,-2.462338,3512.00
75.58164,-2.127256,3514.00
75.61427,-1.634228,3516.00
75.64905,-0.886112,3518.00
75.68191,0.253769,3520.00
75.71621,1.899488,3522.00
75.74949,4.170300,3524.00
75.78214,7.055989,3526.00
75.81388,9.920946,3528.00
75.84550,11.059483,3530.00
75.88091,9.707501,3532.00
75.91442,7.166606,3534.00
75.94730,4.780351,3536.00
75.98138,2.956093,3538.00
76.01304,1.577182,3540.00
76.04908,0.514003,3542.00
76.08121,-0.318660,3544.00
76.11424,-0.983999,3546.00
76.14540,-1.522391,3548.00
76.18011,-1.957859,3550.00
76.21534,-2.307891,3552.00
76.24891,-2.589359,3554.00
76.28184,-2.814473,3556.00
76.31568,-2.995763,3558.00
76.35055,-3.141168,3560.00
76.38143,-3.258051,3562.00
76.41589,-3.352266,3564.00
76.44926,-3.427335,3566.00
76.48495,-3.487643,3568.00
76.51546,-3.536219,3570.00
76.54893,-3.575955,3572.00
76.58196,-3.606706,3574.00
76.61612,-3.631763,3576.00
76.64731,-3.652676,3578.00
76.68194,-3.669940,3580.00
76.71476,-3.684553,3582.00
76.74682,-3.696593,3584.00
76.77876,-3.706406,3586.00
76.81282,-3.714609,3588.00
76.84791,-3.721713,3590.00
76.88198,-3.727524,3592.00
76.91525,-3.733161,3594.00
76.94865,-3.738221,3596.00
76.97943,-3.741956,3598.00
77.01247,-3.745228,3600.00
77.04396,-3.748715,3602.00
77.07643,-3.751898,3604.00
77.10976,-3.755101,3606.00
77.14326,-3.758003,3608.00
77.17625,-3.760833,3610.00
77.20730,-3.763885,3612.00
77.24312,-3.766538,3614.00
77.27691,-3.769411,3616.00
77.31009,-3.771229,3618.00
77.34303,-3.773125,3620.00
77.37582,-3.775143,3622.00
77.40534,-3.777752,3624.00
77.43910,-3.779625,3626.00
77.47328,-3.782190,3628.00
77.50604,-3.784920,3630.00
77.53730,-3.787245,3632.00
77.57224,-3.789567,3634.00
77.60778,-3.792243,3636.00
77.64102,-3.796589,3638.00
77.67416,-3.798147,3640.00
77.71098,-3.800616,3642.00
77.74238,-3.803363,3644.00
77.77294,-3.807229,3646.00
77.80659,-3.810213,3648.00
77.84297,-3.812843,3650.00
77.87459,-3.815352,3652.00
77.90706,-3.818271,3654.00
77.94173,-3.819715,3656.00
77.97405,-3.821990,3658.00
78.00875,-3.823576,3660.00
78.04174,-3.824979,3662.00
78.07381,-3.826084,3664.00
78.10460,-3.826997,3666.00
78.13810,-3.828238,3668.00
78.17540,-3.829835,3670.00
78.20717,-3.831542,3672.00
78.23956,-3.832641,3674.00
78.27316,-3.833498,3676.00
78.30620,-3.835164,3678.00
78.33861,-3.838395,3680.00
78.37331,-3.843424,3682.00
78.40711,-3.847900,3684.00
78.44055,-3.852116,3686.00
78.47347,-3.856072,3688.00
78.50637,-3.860015,3690.00
78.53815,-3.863492,3692.00
78.56902,-3.867812,3694.00
78.60818,-3.871194,3696.00
78.63977,-3.874545,3698.00
78.67266,-3.877656,3700.00
78.70798,-3.880742,3702.00
78.74049,-3.883333,3704.00
78.77034,-3.886237,3706.00
78.80507,-3.890008,3708.00
78.83954,-3.893596,3710.00
78.86992,-3.896625,3712.00
78.90448,-3.899980,3714.00
78.93678,-3.903168,3716.00
78.97163,-3.905824,3718.00
79.00544,-3.909309,3720.00
79.03860,-3.911850,3722.00
79.07361,-3.914886,3724.00
79.10593,-3.917390,3726.00
79.14016,-3.920066,3728.00
79.17324,-3.922853,3730.00
79.20384,-3.925952,3732.00
79.23983,-3.928918,3734.00
79.27152,-3.932305,3736.00
79.30385,-3.935815,3738.00
79.33549,-3.939406,3740.00
79.36827,-3.942015,3742.00
79.40341,-3.944477,3744.00
79.43889,-3.946088,3746.00
79.47038,-3.948324,3748.00
79.50257,-3.950943,3750.00
79.53855,-3.953091,3752.00
79.57201,-3.956119,3754.00
79.60334,-3.959684,3756.00
79.63575,-3.962493,3758.00
79.67056,-3.966020,3760.00
79.70304,-3.969984,3762.00
79.73724,-3.974090,3764.00
79.76977,-3.977545,3766.00
79.80223,-3.981164,3768.00
79.83900,-3.984760,3770.00
79.87146,-3.988309,3772.00
79.90698,-3.992087,3774.00
79.93861,-3.994751,3776.00
79.97332,-3.998113,3778.00

