$DSC2
$Conventional
$Adiabatic Mode
$Scanrate Corrected-Programmed
$Baseline Subtraction Method: 0 File: NONE
$DP Corrected
$RTD Corrected
$MidGain FB,  0.75 
$ADCGainCode:  0 
$ 10 
$NOT
$ 10 
$ 0            20            25           False
$ 0 
$ 15           80            60            5             0             2             2             0 
$ 15           80            60            5             0             2             2             0 
$ 15           80            60            5             0             2             2             0 
$ 15           80            60            5             0             2             2             0 
$ 15           80            60            5             0             2             2             0 
$ 15           80            60            5             0             2             2             0 
$ 15           80            60            5             0             2             2             0 
$ 15           80            60            5             0             2             2             0 
$ 15           80            60            5             0             2             2             0 
$ 15           80            60            5             0             2             2             0 
# 0 
# 0.5197
# 0
# 11.63 
# 0.75 
# 10.743 
? 
% VPDSC02.06.462
% 0.51971 
% 11.63 
%-0.995356 , 100.17434 
% 3.676 
% 250 ,       -22.5 
% 1000.3 , 1000.3 
% 0.88219 ,-0.02026 
%-0.08266 , 0.02515 
% 1 , 0.055 
% 0.0522 
% 1 , 130 
% 0.080433 , 0.056504 
% 0 , 8 
% 0 , 18 
% 0.072589046661 ,-0.003235099108 , 8.240903228419E-06 , 2.357972384211E-07 ,-7.440723641986E-10 
% VPViewer2000 Ver: 1.4.14
@7
17.38354,-3.162283,2.00
17.41710,-3.162071,4.00
17.45229,-3.161060,6.00
17.48555,-3.161067,8.00
17.52081,-3.161272,10.00
17.55410,-3.161468,12.00
17.58652,-3.161877,14.00
17.62258,-3.162018,16.00
17.65685,-3.161596,18.00
17.68944,-3.161468,20.00
17.72139,-3.161067,22.00
17.75536,-3.160599,24.00
17.78923,-3.160079,26.00
17.82418,-3.160191,28.00
17.85775,-3.160266,30.00
17.89032,-3.159998,32.00
17.92452,-3.159669,34.00
17.96045,-3.159518,36.00
17.99241,-3.159699,38.00
18.02494,-3.160230,40.00
18.06024,-3.160273,42.00
18.09220,-3.160808,44.00
18.12636,-3.161084,46.00
18.15916,-3.160706,48.00
18.19258,-3.160514,50.00
18.22253,-3.160515,52.00
18.25837,-3.160495,54.00
18.29163,-3.160723,56.00
18.32117,-3.161105,58.00
18.35432,-3.161135,60.00
18.38532,-3.161025,62.00
18.41865,-3.161162,64.00
18.45198,-3.161059,66.00
18.48528,-3.160434,68.00
18.51670,-3.159499,70.00
18.54899,-3.158626,72.00
18.58235,-3.158498,74.00
18.61422,-3.158003,76.00
18.64968,-3.158012,78.00
18.68436,-3.158477,80.00
18.71489,-3.158562,82.00
18.74862,-3.159520,84.00
18.77926,-3.159281,86.00
18.81283,-3.159037,88.00
18.84674,-3.158723,90.00
18.87876,-3.158637,92.00
18.91118,-3.158246,94.00
18.94533,-3.157850,96.00
18.97729,-3.157374,98.00
19.01068,-3.157065,100.00
19.04334,-3.156924,102.00
19.07977,-3.156148,104.00
19.11000,-3.155072,106.00
19.14274,-3.154879,108.00
19.17622,-3.154505,110.00
19.20890,-3.154858,112.00
19.24075,-3.154857,114.00
19.27480,-3.155077,116.00
19.30953,-3.154899,118.00
19.34125,-3.155255,120.00
19.37246,-3.155511,122.00
19.40610,-3.156261,124.00
19.43895,-3.155989,126.00
19.47285,-3.155893,128.00
19.50646,-3.155918,130.00
19.53963,-3.155423,132.00
19.57134,-3.155297,134.00
19.60713,-3.154437,136.00
19.64088,-3.154114,138.00
19.67007,-3.154171,140.00
19.69991,-3.154689,142.00
19.73671,-3.154721,144.00
19.77162,-3.154726,146.00
19.80465,-3.155330,148.00
19.83369,-3.155231,150.00
19.86778,-3.154790,152.00
19.90195,-3.154433,154.00
19.93315,-3.154678,156.00
19.96625,-3.154932,158.00
19.99659,-3.155212,160.00
20.03030,-3.155133,162.00
20.06421,-3.155084,164.00
20.09619,-3.154848,166.00
20.13145,-3.155329,168.00
20.16296,-3.155697,170.00
20.19473,-3.154824,172.00
20.22906,-3.154441,174.00
20.26322,-3.153949,176.00
20.29949,-3.153798,178.00
20.33242,-3.153690,180.00
20.36642,-3.153104,182.00
20.39702,-3.152433,184.00
20.43106,-3.151962,186.00
20.46592,-3.151688,188.00
20.49820,-3.152014,190.00
20.52931,-3.152414,192.00
20.56305,-3.153032,194.00
20.59723,-3.153437,196.00
20.62964,-3.153147,198.00
20.65962,-3.153038,200.00
20.69594,-3.153098,202.00
20.73106,-3.152960,204.00
20.76366,-3.152978,206.00
20.79562,-3.152887,208.00
20.82957,-3.152829,210.00
20.86308,-3.153188,212.00
20.89553,-3.153304,214.00
20.92719,-3.154204,216.00
20.95935,-3.153803,218.00
20.99024,-3.153247,220.00
21.02573,-3.152754,222.00
21.06092,-3.152457,224.00
21.09697,-3.151807,226.00
21.12855,-3.151596,228.00
21.15998,-3.150996,230.00
21.19309,-3.150265,232.00
21.22674,-3.149343,234.00
21.25846,-3.149342,236.00
21.29398,-3.149601,238.00
21.32544,-3.149244,240.00
21.35936,-3.149106,242.00
21.39181,-3.149384,244.00
21.42741,-3.149419,246.00
21.45898,-3.149697,248.00
21.48834,-3.150012,250.00
21.51987,-3.150099,252.00
21.55293,-3.149870,254.00
21.58621,-3.150346,256.00
21.61869,-3.150175,258.00
21.64979,-3.149994,260.00
21.68451,-3.150029,262.00
21.71682,-3.150331,264.00
21.75051,-3.150359,266.00
21.78345,-3.150387,268.00
21.81734,-3.150310,270.00
21.84998,-3.150065,272.00
21.88751,-3.149813,274.00
21.91916,-3.149419,276.00
21.95024,-3.149424,278.00
21.98304,-3.148873,280.00
22.01222,-3.148172,282.00
22.04677,-3.147898,284.00
22.08334,-3.148216,286.00
22.11648,-3.147543,288.00
22.14720,-3.147485,290.00
22.18076,-3.147765,292.00
22.21122,-3.147747,294.00
22.24351,-3.147632,296.00
22.27526,-3.148116,298.00
22.30943,-3.148375,300.00
22.34415,-3.148953,302.00
22.37579,-3.149172,304.00
22.40847,-3.149211,306.00
22.44122,-3.149477,308.00
22.47294,-3.149305,310.00
22.50360,-3.149331,312.00
22.53642,-3.149104,314.00
22.56968,-3.148530,316.00
22.60238,-3.147860,318.00
22.63370,-3.147454,320.00
22.66517,-3.147798,322.00
22.69987,-3.147992,324.00
22.73346,-3.147672,326.00
22.76634,-3.147932,328.00
22.79701,-3.148397,330.00
22.82810,-3.148846,332.00
22.86065,-3.149239,334.00
22.89335,-3.148943,336.00
22.92576,-3.148707,338.00
22.95971,-3.148830,340.00
22.99383,-3.149296,342.00
23.02808,-3.148942,344.00
23.06194,-3.148193,346.00
23.09593,-3.147993,348.00
23.12742,-3.147974,350.00
23.16169,-3.147347,352.00
23.19609,-3.147017,354.00
23.22821,-3.146700,356.00
23.26122,-3.147020,358.00
23.29536,-3.146862,360.00
23.32652,-3.146788,362.00
23.35988,-3.146769,364.00
23.39050,-3.146745,366.00
23.42296,-3.147519,368.00
23.45872,-3.147642,370.00
23.49047,-3.147971,372.00
23.52060,-3.148310,374.00
23.55635,-3.148637,376.00
23.58760,-3.149191,378.00
23.61954,-3.148510,380.00
23.65392,-3.148264,382.00
23.68645,-3.148371,384.00
23.72007,-3.147768,386.00
23.75299,-3.147388,388.00
23.78463,-3.146590,390.00
23.81692,-3.146361,392.00
23.85091,-3.146426,394.00
23.88616,-3.146417,396.00
23.91624,-3.146490,398.00
23.94822,-3.146914,400.00
23.98213,-3.147344,402.00
24.01328,-3.147310,404.00
24.04559,-3.147826,406.00
24.08147,-3.148210,408.00
24.11440,-3.148825,410.00
24.14685,-3.149019,412.00
24.17905,-3.149437,414.00
24.21211,-3.149245,416.00
24.24539,-3.149397,418.00
24.27854,-3.149611,420.00
24.31046,-3.149035,422.00
24.34175,-3.148571,424.00
24.37537,-3.148434,426.00
24.41029,-3.147621,428.00
24.44228,-3.147567,430.00
24.47887,-3.147259,432.00
24.51091,-3.147401,434.00
24.54381,-3.147564,436.00
24.57846,-3.147615,438.00
24.61088,-3.147782,440.00
24.64348,-3.148743,442.00
24.67543,-3.148964,444.00
24.70792,-3.148814,446.00
24.73999,-3.149061,448.00
24.77525,-3.149564,450.00
24.80742,-3.150186,452.00
24.84283,-3.150061,454.00
24.87764,-3.149888,456.00
24.91243,-3.150091,458.00
24.94814,-3.149560,460.00
24.98163,-3.150032,462.00
25.01600,-3.150699,464.00
25.04887,-3.150532,466.00
25.07901,-3.150847,468.00
25.11351,-3.151094,470.00
25.14868,-3.150886,472.00
25.17889,-3.151130,474.00
25.21217,-3.151152,476.00
25.24763,-3.150829,478.00
25.28089,-3.150891,480.00
25.31268,-3.150740,482.00
25.34614,-3.150675,484.00
25.37867,-3.150798,486.00
25.41018,-3.150610,488.00
25.44361,-3.150365,490.00
25.47486,-3.150839,492.00
25.50772,-3.151527,494.00
25.54181,-3.151805,496.00
25.57672,-3.152185,498.00
25.61000,-3.152805,500.00
25.64218,-3.152799,502.00
25.67337,-3.152759,504.00
25.70604,-3.153165,506.00
25.73812,-3.153109,508.00
25.77176,-3.152980,510.00
25.80484,-3.153773,512.00
25.83740,-3.155015,514.00
25.86997,-3.155853,516.00
25.90376,-3.156832,518.00
25.93594,-3.157795,520.00
25.96799,-3.158589,522.00
25.99895,-3.159336,524.00
26.03278,-3.160035,526.00
26.06554,-3.160844,528.00
26.09928,-3.161829,530.00
26.13194,-3.162666,532.00
26.16364,-3.163533,534.00
26.19621,-3.164534,536.00
26.22984,-3.165325,538.00
26.26223,-3.166142,540.00
26.29491,-3.166517,542.00
26.32675,-3.166865,544.00
26.36018,-3.167248,546.00
26.39487,-3.167916,548.00
26.42752,-3.168677,550.00
26.46209,-3.169403,552.00
26.49514,-3.170140,554.00
26.52904,-3.171745,556.00
26.56062,-3.172704,558.00
26.59520,-3.174177,560.00
26.62658,-3.175574,562.00
26.65963,-3.177503,564.00
26.69393,-3.179263,566.00
26.72645,-3.180881,568.00
26.75797,-3.182863,570.00
26.79144,-3.184708,572.00
26.82378,-3.186995,574.00
26.85654,-3.189461,576.00
26.88937,-3.192609,578.00
26.92046,-3.195656,580.00
26.95430,-3.199428,582.00
26.98844,-3.203005,584.00
27.02212,-3.206502,586.00
27.05803,-3.210817,588.00
27.09006,-3.215752,590.00
27.12205,-3.220798,592.00
27.15463,-3.226188,594.00
27.18899,-3.231652,596.00
27.22431,-3.237944,598.00
27.25523,-3.245753,600.00
27.28823,-3.253518,602.00
27.32039,-3.262504,604.00
27.35251,-3.272557,606.00
27.38425,-3.284341,608.00
27.41687,-3.297571,610.00
27.45120,-3.313026,612.00
27.48429,-3.331357,614.00
27.51510,-3.352573,616.00
27.54667,-3.377893,618.00
27.58080,-3.408872,620.00
27.61528,-3.446728,622.00
27.64677,-3.493177,624.00
27.68174,-3.550317,626.00
27.71491,-3.622123,628.00
27.74889,-3.713532,630.00
27.78292,-3.833670,632.00
27.81334,-3.991750,634.00
27.84515,-4.200005,636.00
27.87780,-4.465254,638.00
27.91312,-4.768529,640.00
27.94818,-5.098088,642.00
27.98141,-5.472746,644.00
28.01423,-5.883154,646.00
28.04806,-6.329700,648.00
28.07993,-6.819542,650.00
28.11350,-7.284901,652.00
28.14711,-7.557701,654.00
28.18234,-7.471666,656.00
28.21350,-7.062766,658.00
28.24664,-6.506330,660.00
28.28214,-5.958539,662.00
28.31423,-5.475166,664.00
28.34436,-5.064201,666.00
28.37807,-4.721357,668.00
28.41319,-4.437877,670.00
28.44570,-4.203553,672.00
28.47914,-4.010310,674.00
28.51237,-3.851362,676.00
28.54409,-3.721105,678.00
28.57906,-3.615004,680.00
28.61110,-3.527094,682.00
28.64311,-3.454771,684.00
28.67780,-3.395511,686.00
28.71013,-3.346764,688.00
28.74168,-3.307322,690.00
28.77549,-3.274887,692.00
28.81001,-3.247774,694.00
28.84304,-3.226272,696.00
28.87511,-3.208834,698.00
28.90766,-3.194361,700.00
28.94116,-3.183022,702.00
28.97310,-3.173937,704.00
29.00589,-3.165999,706.00
29.03961,-3.159344,708.00
29.07458,-3.153841,710.00
29.10902,-3.150139,712.00
29.14256,-3.147082,714.00
29.17397,-3.144572,716.00
29.20603,-3.143700,718.00
29.23894,-3.143625,720.00
29.27224,-3.143184,722.00
29.30492,-3.143519,724.00
29.33719,-3.144920,726.00
29.37060,-3.146597,728.00
29.40308,-3.147228,730.00
29.43930,-3.146878,732.00
29.47083,-3.145486,734.00
29.50165,-3.143221,736.00
29.53528,-3.140971,738.00
29.56770,-3.138960,740.00
29.60245,-3.136671,742.00
29.63555,-3.135319,744.00
29.66695,-3.133780,746.00
29.69754,-3.132331,748.00
29.73193,-3.131123,750.00
29.76394,-3.129944,752.00
29.79608,-3.128824,754.00
29.82975,-3.128309,756.00
29.86355,-3.127752,758.00
29.89600,-3.127937,760.00
29.93176,-3.127576,762.00
29.96046,-3.127473,764.00
29.99019,-3.127040,766.00
30.02420,-3.126593,768.00
30.05885,-3.126237,770.00
30.09036,-3.126245,772.00
30.12064,-3.125689,774.00
30.15433,-3.125475,776.00
30.19044,-3.125032,778.00
30.22226,-3.125214,780.00
30.25303,-3.124826,782.00
30.28710,-3.124877,784.00
30.31951,-3.125312,786.00
30.35313,-3.125684,788.00
30.38893,-3.125191,790.00
30.41903,-3.125534,792.00
30.45103,-3.125553,794.00
30.48489,-3.125953,796.00
30.51821,-3.125903,798.00
30.55326,-3.125581,800.00
30.58952,-3.125805,802.00
30.62319,-3.125589,804.00
30.65645,-3.125204,806.00
30.68777,-3.125597,808.00
30.72002,-3.125727,810.00
30.75367,-3.125863,812.00
30.78520,-3.125700,814.00
30.81926,-3.125814,816.00
30.85308,-3.126320,818.00
30.88697,-3.126156,820.00
30.91976,-3.125654,822.00
30.95377,-3.125217,824.00
30.99192,-3.124430,826.00
31.02489,-3.123572,828.00
31.05782,-3.123569,830.00
31.08862,-3.123984,832.00
31.12218,-3.123798,834.00
31.15814,-3.123363,836.00
31.18860,-3.123408,838.00
31.22298,-3.122831,840.00
31.25569,-3.123230,842.00
31.28771,-3.123356,844.00
31.32148,-3.123557,846.00
31.35557,-3.124088,848.00
31.38626,-3.124372,850.00
31.41856,-3.124927,852.00
31.45220,-3.125376,854.00
31.48491,-3.125543,856.00
31.52027,-3.125351,858.00
31.55517,-3.125042,860.00
31.58599,-3.125566,862.00
31.62027,-3.125520,864.00
31.65409,-3.125731,866.00
31.68802,-3.125656,868.00
31.72062,-3.125227,870.00
31.75341,-3.125400,872.00
31.78773,-3.125549,874.00
31.81925,-3.125597,876.00
31.85153,-3.125126,878.00
31.88648,-3.125003,880.00
31.91859,-3.124704,882.00
31.95372,-3.124353,884.00
31.98785,-3.124046,886.00
32.02032,-3.123806,888.00
32.05489,-3.123447,890.00
32.08778,-3.123356,892.00
32.12016,-3.123338,894.00
32.15227,-3.123571,896.00
32.18644,-3.122706,898.00
32.22174,-3.122374,900.00
32.25620,-3.122407,902.00
32.28791,-3.122644,904.00
32.32221,-3.122637,906.00
32.35734,-3.122841,908.00
32.38914,-3.122864,910.00
32.42422,-3.122877,912.00
32.45682,-3.123499,914.00
32.48850,-3.123956,916.00
32.52040,-3.123317,918.00
32.55462,-3.123849,920.00
32.58928,-3.124523,922.00
32.61969,-3.124660,924.00
32.65624,-3.124124,926.00
32.68601,-3.124474,928.00
32.71943,-3.124009,930.00
32.75320,-3.124128,932.00
32.78638,-3.123838,934.00
32.81841,-3.123029,936.00
32.85145,-3.122506,938.00
32.88417,-3.122469,940.00
32.91776,-3.122642,942.00
32.95221,-3.122055,944.00
32.98354,-3.121796,946.00
33.01843,-3.121563,948.00
33.05063,-3.120948,950.00
33.08293,-3.120908,952.00
33.11512,-3.121144,954.00
33.15124,-3.121033,956.00
33.18263,-3.120743,958.00
33.21420,-3.120359,960.00
33.24999,-3.120234,962.00
33.28255,-3.120731,964.00
33.31593,-3.120838,966.00
33.34905,-3.121577,968.00
33.38106,-3.121548,970.00
33.41319,-3.121197,972.00
33.44609,-3.120643,974.00
33.48097,-3.120653,976.00
33.51537,-3.120864,978.00
33.54774,-3.121378,980.00
33.58073,-3.120740,982.00
33.61356,-3.120742,984.00
33.64392,-3.121515,986.00
33.67670,-3.122119,988.00
33.71373,-3.122578,990.00
33.74779,-3.122520,992.00
33.78135,-3.122567,994.00
33.81190,-3.123156,996.00
33.84389,-3.123394,998.00
33.87365,-3.123319,1000.00
33.90490,-3.123417,1002.00
33.93991,-3.123766,1004.00
33.97069,-3.123973,1006.00
34.00462,-3.123697,1008.00
34.03575,-3.123296,1010.00
34.06814,-3.123201,1012.00
34.10227,-3.123148,1014.00
34.13630,-3.123462,1016.00
34.16817,-3.123031,1018.00
34.20202,-3.123220,1020.00
34.23591,-3.123033,1022.00
34.26994,-3.122886,1024.00
34.30248,-3.122750,1026.00
34.33629,-3.122347,1028.00
34.37103,-3.121927,1030.00
34.40277,-3.121530,1032.00
34.43682,-3.121564,1034.00
34.47061,-3.121086,1036.00
34.50598,-3.121065,1038.00
34.53857,-3.120906,1040.00
34.57321,-3.120694,1042.00
34.60848,-3.120783,1044.00
34.64028,-3.120870,1046.00
34.67554,-3.121332,1048.00
34.70693,-3.121618,1050.00
34.74055,-3.120980,1052.00
34.77165,-3.120817,1054.00
34.80533,-3.121176,1056.00
34.83954,-3.121102,1058.00
34.87377,-3.120155,1060.00
34.90714,-3.120092,1062.00
34.94036,-3.120222,1064.00
34.97319,-3.120603,1066.00
35.00598,-3.120583,1068.00
35.04085,-3.120652,1070.00
35.07354,-3.120859,1072.00
35.10637,-3.121274,1074.00
35.13979,-3.122173,1076.00
35.16956,-3.122865,1078.00
35.20253,-3.123446,1080.00
35.23731,-3.123718,1082.00
35.27211,-3.123156,1084.00
35.30447,-3.123038,1086.00
35.33831,-3.122788,1088.00
35.36965,-3.122366,1090.00
35.40300,-3.122102,1092.00
35.43664,-3.122380,1094.00
35.47129,-3.122167,1096.00
35.50419,-3.122219,1098.00
35.53650,-3.122280,1100.00
35.56937,-3.122159,1102.00
35.60437,-3.122209,1104.00
35.63823,-3.122918,1106.00
35.67457,-3.122949,1108.00
35.70804,-3.123307,1110.00
35.74142,-3.123358,1112.00
35.77427,-3.123262,1114.00
35.80923,-3.123173,1116.00
35.84217,-3.123083,1118.00
35.87531,-3.122573,1120.00
35.90640,-3.122318,1122.00
35.94013,-3.122277,1124.00
35.97191,-3.121957,1126.00
36.00827,-3.122220,1128.00
36.04169,-3.122247,1130.00
36.07463,-3.121919,1132.00
36.10651,-3.121295,1134.00
36.13940,-3.121112,1136.00
36.17411,-3.121003,1138.00
36.20597,-3.120558,1140.00
36.23978,-3.119817,1142.00
36.27239,-3.120558,1144.00
36.30274,-3.121299,1146.00
36.33450,-3.121848,1148.00
36.37113,-3.122247,1150.00
36.40737,-3.122419,1152.00
36.43880,-3.122960,1154.00
36.47244,-3.123034,1156.00
36.50488,-3.123328,1158.00
36.53861,-3.123836,1160.00
36.57434,-3.123565,1162.00
36.60807,-3.123702,1164.00
36.64161,-3.123463,1166.00
36.67288,-3.123206,1168.00
36.70330,-3.122933,1170.00
36.73440,-3.123216,1172.00
36.76771,-3.122827,1174.00
36.80292,-3.122132,1176.00
36.83577,-3.121431,1178.00
36.86568,-3.121072,1180.00
36.89741,-3.121308,1182.00
36.93305,-3.121076,1184.00
36.96596,-3.121295,1186.00
36.99938,-3.121203,1188.00
37.03462,-3.121565,1190.00
37.06770,-3.121145,1192.00
37.10322,-3.120459,1194.00
37.13520,-3.120191,1196.00
37.16757,-3.120391,1198.00
37.19971,-3.120648,1200.00
37.23123,-3.120463,1202.00
37.26473,-3.120312,1204.00
37.29794,-3.120275,1206.00
37.32862,-3.120303,1208.00
37.36516,-3.120967,1210.00
37.40051,-3.121331,1212.00
37.43281,-3.121874,1214.00
37.46788,-3.122568,1216.00
37.50085,-3.123261,1218.00
37.53527,-3.123678,1220.00
37.56824,-3.123610,1222.00
37.60201,-3.123868,1224.00
37.63546,-3.123731,1226.00
37.66801,-3.123940,1228.00
37.69921,-3.123605,1230.00
37.73153,-3.124369,1232.00
37.76326,-3.124139,1234.00
37.79497,-3.123607,1236.00
37.82828,-3.123457,1238.00
37.85994,-3.124155,1240.00
37.89400,-3.124010,1242.00
37.92522,-3.124089,1244.00
37.95973,-3.123635,1246.00
37.99333,-3.123384,1248.00
38.02273,-3.123560,1250.00
38.05635,-3.123074,1252.00
38.09325,-3.123246,1254.00
38.12570,-3.122962,1256.00
38.15900,-3.122939,1258.00
38.19453,-3.122868,1260.00
38.22814,-3.122895,1262.00
38.26071,-3.122749,1264.00
38.29394,-3.122265,1266.00
38.32597,-3.121849,1268.00
38.35726,-3.121946,1270.00
38.38876,-3.122102,1272.00
38.42309,-3.121687,1274.00
38.45535,-3.121767,1276.00
38.48770,-3.122089,1278.00
38.52284,-3.122740,1280.00
38.55850,-3.123029,1282.00
38.59061,-3.123250,1284.00
38.62456,-3.123554,1286.00
38.65719,-3.123765,1288.00
38.69105,-3.123849,1290.00
38.72160,-3.124150,1292.00
38.75469,-3.124317,1294.00
38.78904,-3.124835,1296.00
38.82155,-3.125222,1298.00
38.85810,-3.125767,1300.00
38.89087,-3.125766,1302.00
38.92240,-3.125787,1304.00
38.95313,-3.125605,1306.00
38.98810,-3.125630,1308.00
39.02217,-3.125872,1310.00
39.05541,-3.126163,1312.00
39.08751,-3.126154,1314.00
39.12051,-3.126768,1316.00
39.15402,-3.126775,1318.00
39.18627,-3.126443,1320.00
39.22079,-3.126147,1322.00
39.25522,-3.126132,1324.00
39.28851,-3.125986,1326.00
39.31736,-3.125765,1328.00
39.35246,-3.125619,1330.00
39.38537,-3.125454,1332.00
39.41843,-3.124845,1334.00
39.45019,-3.124598,1336.00
39.48290,-3.124520,1338.00
39.51632,-3.124516,1340.00
39.55243,-3.124838,1342.00
39.58510,-3.124296,1344.00
39.61878,-3.124759,1346.00
39.65253,-3.124946,1348.00
39.68492,-3.125150,1350.00
39.71862,-3.125209,1352.00
39.75047,-3.125915,1354.00
39.78700,-3.126472,1356.00
39.82190,-3.126637,1358.00
39.85709,-3.126594,1360.00
39.89172,-3.126662,1362.00
39.92406,-3.126424,1364.00
39.95663,-3.126542,1366.00
39.98757,-3.126581,1368.00
40.02210,-3.126949,1370.00
40.05668,-3.127113,1372.00
40.08917,-3.127243,1374.00
40.12098,-3.127700,1376.00
40.15492,-3.127774,1378.00
40.18861,-3.126871,1380.00
40.22083,-3.126531,1382.00
40.25291,-3.126468,1384.00
40.28775,-3.125924,1386.00
40.32368,-3.125628,1388.00
40.35587,-3.125296,1390.00
40.38768,-3.125376,1392.00
40.42227,-3.125299,1394.00
40.45469,-3.125457,1396.00
40.48868,-3.125458,1398.00
40.52432,-3.125806,1400.00
40.55612,-3.125928,1402.00
40.59083,-3.125795,1404.00
40.62333,-3.125494,1406.00
40.65560,-3.126052,1408.00
40.68940,-3.125912,1410.00
40.72207,-3.125957,1412.00
40.75721,-3.125858,1414.00
40.78894,-3.126226,1416.00
40.82263,-3.126270,1418.00
40.85581,-3.125940,1420.00
40.88914,-3.125717,1422.00
40.92100,-3.125376,1424.00
40.95283,-3.125084,1426.00
40.98848,-3.125414,1428.00
41.02173,-3.125353,1430.00
41.05311,-3.125402,1432.00
41.08510,-3.125196,1434.00
41.12004,-3.124858,1436.00
41.15344,-3.125282,1438.00
41.18709,-3.125845,1440.00
41.22020,-3.125714,1442.00
41.25348,-3.126130,1444.00
41.28767,-3.126576,1446.00
41.32260,-3.126392,1448.00
41.35651,-3.126524,1450.00
41.38844,-3.126000,1452.00
41.42200,-3.125852,1454.00
41.45578,-3.125932,1456.00
41.48921,-3.126537,1458.00
41.52322,-3.127009,1460.00
41.55737,-3.127691,1462.00
41.58876,-3.128317,1464.00
41.62074,-3.128397,1466.00
41.65008,-3.128272,1468.00
41.68049,-3.128541,1470.00
41.71167,-3.129103,1472.00
41.74477,-3.129365,1474.00
41.78068,-3.129691,1476.00
41.81212,-3.129089,1478.00
41.84413,-3.129129,1480.00
41.87556,-3.128323,1482.00
41.90910,-3.128255,1484.00
41.94258,-3.128252,1486.00
41.97515,-3.128280,1488.00
42.00648,-3.128009,1490.00
42.04073,-3.127763,1492.00
42.07492,-3.127895,1494.00
42.10873,-3.128206,1496.00
42.14183,-3.128057,1498.00
42.17365,-3.127751,1500.00
42.20546,-3.127410,1502.00
42.23764,-3.127422,1504.00
42.27253,-3.127306,1506.00
42.30531,-3.127084,1508.00
42.34110,-3.127205,1510.00
42.37415,-3.127691,1512.00
42.40588,-3.127957,1514.00
42.44076,-3.128229,1516.00
42.47526,-3.128536,1518.00
42.50884,-3.128937,1520.00
42.54182,-3.128995,1522.00
42.57295,-3.128830,1524.00
42.60447,-3.128713,1526.00
42.63873,-3.129287,1528.00
42.66990,-3.129520,1530.00
42.70261,-3.130246,1532.00
42.73835,-3.130484,1534.00
42.77154,-3.130757,1536.00
42.80264,-3.131651,1538.00
42.84087,-3.132098,1540.00
42.87283,-3.132600,1542.00
42.90645,-3.133086,1544.00
42.93713,-3.132806,1546.00
42.97228,-3.132659,1548.00
43.00531,-3.132965,1550.00
43.03862,-3.133658,1552.00
43.07362,-3.133497,1554.00
43.10546,-3.133648,1556.00
43.13931,-3.133800,1558.00
43.17116,-3.133563,1560.00
43.20772,-3.133124,1562.00
43.23997,-3.133209,1564.00
43.27315,-3.133202,1566.00
43.30737,-3.133749,1568.00
43.34206,-3.134151,1570.00
43.37492,-3.134013,1572.00
43.40871,-3.134154,1574.00
43.44338,-3.133813,1576.00
43.47740,-3.133081,1578.00
43.51056,-3.133221,1580.00
43.54423,-3.133550,1582.00
43.57875,-3.133716,1584.00
43.61364,-3.133457,1586.00
43.64593,-3.133064,1588.00
43.67878,-3.132636,1590.00
43.71194,-3.133112,1592.00
43.74855,-3.133568,1594.00
43.78038,-3.134481,1596.00
43.81212,-3.134860,1598.00
43.84352,-3.134820,1600.00
43.87577,-3.134748,1602.00
43.90844,-3.134511,1604.00
43.94174,-3.134825,1606.00
43.97580,-3.134701,1608.00
44.01050,-3.134862,1610.00
44.04502,-3.135036,1612.00
44.07911,-3.135439,1614.00
44.11172,-3.135768,1616.00
44.14417,-3.135918,1618.00
44.17494,-3.136463,1620.00
44.20832,-3.136492,1622.00
44.24009,-3.136954,1624.00
44.27530,-3.136846,1626.00
44.30923,-3.137091,1628.00
44.34122,-3.137410,1630.00
44.37092,-3.137588,1632.00
44.40585,-3.137263,1634.00
44.43809,-3.137388,1636.00
44.47112,-3.137489,1638.00
44.50437,-3.138078,1640.00
44.53833,-3.138109,1642.00
44.57170,-3.138408,1644.00
44.60361,-3.138417,1646.00
44.63623,-3.138135,1648.00
44.67146,-3.137970,1650.00
44.70541,-3.137466,1652.00
44.74026,-3.137073,1654.00
44.77306,-3.136628,1656.00
44.80647,-3.136789,1658.00
44.83849,-3.137315,1660.00
44.86968,-3.137351,1662.00
44.90191,-3.137397,1664.00
44.93572,-3.137384,1666.00
44.96780,-3.137049,1668.00
44.99901,-3.136971,1670.00
45.03213,-3.136934,1672.00
45.06676,-3.137099,1674.00
45.10069,-3.137115,1676.00
45.13547,-3.136944,1678.00
45.16811,-3.136926,1680.00
45.20192,-3.136791,1682.00
45.23341,-3.136954,1684.00
45.27071,-3.137278,1686.00
45.30522,-3.138168,1688.00
45.33742,-3.138831,1690.00
45.37069,-3.139350,1692.00
45.40332,-3.139915,1694.00
45.43492,-3.139886,1696.00
45.46610,-3.139920,1698.00
45.49964,-3.140319,1700.00
45.53203,-3.140810,1702.00
45.56454,-3.140643,1704.00
45.59593,-3.141130,1706.00
45.62908,-3.141085,1708.00
45.66518,-3.141236,1710.00
45.69546,-3.141755,1712.00
45.72796,-3.142018,1714.00
45.76210,-3.141922,1716.00
45.79413,-3.141754,1718.00
45.82757,-3.141868,1720.00
45.85618,-3.141885,1722.00
45.88849,-3.141725,1724.00
45.92334,-3.141800,1726.00
45.95655,-3.142117,1728.00
45.98987,-3.142470,1730.00
46.02340,-3.142938,1732.00
46.05842,-3.142843,1734.00
46.09170,-3.143015,1736.00
46.12351,-3.142923,1738.00
46.15585,-3.142672,1740.00
46.18988,-3.142513,1742.00
46.22221,-3.142457,1744.00
46.25310,-3.142736,1746.00
46.28768,-3.142283,1748.00
46.32206,-3.142434,1750.00
46.35476,-3.142989,1752.00
46.38718,-3.143153,1754.00
46.42284,-3.142792,1756.00
46.45814,-3.142716,1758.00
46.49044,-3.142619,1760.00
46.52344,-3.142477,1762.00
46.55764,-3.142626,1764.00
46.58980,-3.142657,1766.00
46.61960,-3.142639,1768.00
46.65304,-3.142373,1770.00
46.68796,-3.142865,1772.00
46.72108,-3.142958,1774.00
46.75134,-3.142810,1776.00
46.78661,-3.142796,1778.00
46.82005,-3.143396,1780.00
46.85216,-3.143402,1782.00
46.88545,-3.143320,1784.00
46.91862,-3.143505,1786.00
46.95245,-3.143753,1788.00
46.98608,-3.143942,1790.00
47.01607,-3.143996,1792.00
47.04958,-3.144776,1794.00
47.08355,-3.145553,1796.00
47.11682,-3.146233,1798.00
47.14882,-3.146761,1800.00
47.18044,-3.146995,1802.00
47.21314,-3.147142,1804.00
47.24767,-3.147195,1806.00
47.27921,-3.147821,1808.00
47.31496,-3.147701,1810.00
47.34802,-3.147231,1812.00
47.37841,-3.147935,1814.00
47.41187,-3.148148,1816.00
47.44731,-3.148196,1818.00
47.48034,-3.148365,1820.00
47.51117,-3.148474,1822.00
47.54368,-3.148495,1824.00
47.57704,-3.148669,1826.00
47.61195,-3.148703,1828.00
47.64416,-3.148578,1830.00
47.67776,-3.148860,1832.00
47.71262,-3.148993,1834.00
47.74588,-3.148888,1836.00
47.78103,-3.148618,1838.00
47.81357,-3.148525,1840.00
47.84691,-3.148595,1842.00
47.87851,-3.148555,1844.00
47.91094,-3.148756,1846.00
47.94380,-3.148518,1848.00
47.97695,-3.149456,1850.00
48.00824,-3.149807,1852.00
48.04228,-3.149495,1854.00
48.07765,-3.149459,1856.00
48.10832,-3.149586,1858.00
48.14118,-3.149680,1860.00
48.17438,-3.149654,1862.00
48.20888,-3.149523,1864.00
48.24016,-3.150047,1866.00
48.27174,-3.149768,1868.00
48.30383,-3.149723,1870.00
48.33803,-3.149809,1872.00
48.36977,-3.149838,1874.00
48.40466,-3.149417,1876.00
48.43691,-3.149781,1878.00
48.46990,-3.149987,1880.00
48.50373,-3.150256,1882.00
48.53702,-3.150275,1884.00
48.57097,-3.150179,1886.00
48.60253,-3.150638,1888.00
48.63640,-3.151044,1890.00
48.66947,-3.151751,1892.00
48.70323,-3.151925,1894.00
48.73565,-3.152374,1896.00
48.76756,-3.152991,1898.00
48.80219,-3.152916,1900.00
48.83387,-3.152932,1902.00
48.86682,-3.153233,1904.00
48.89978,-3.153372,1906.00
48.93318,-3.153499,1908.00
48.96722,-3.153328,1910.00
49.00002,-3.152449,1912.00
49.03274,-3.153107,1914.00
49.06331,-3.153008,1916.00
49.09826,-3.153442,1918.00
49.13174,-3.153907,1920.00
49.16451,-3.153661,1922.00
49.19645,-3.154666,1924.00
49.22725,-3.154821,1926.00
49.26088,-3.155034,1928.00
49.29552,-3.155127,1930.00
49.32999,-3.155637,1932.00
49.36466,-3.156387,1934.00
49.39707,-3.156508,1936.00
49.42999,-3.156780,1938.00
49.46127,-3.157231,1940.00
49.49286,-3.157710,1942.00
49.52415,-3.157863,1944.00
49.55980,-3.158101,1946.00
49.59432,-3.157931,1948.00
49.62550,-3.157941,1950.00
49.65926,-3.158150,1952.00
49.69228,-3.158254,1954.00
49.72394,-3.158378,1956.00
49.75723,-3.159048,1958.00
49.78919,-3.159493,1960.00
49.82222,-3.160189,1962.00
49.85624,-3.160401,1964.00
49.88715,-3.160757,1966.00
49.92036,-3.160703,1968.00
49.95462,-3.160809,1970.00
49.98663,-3.160598,1972.00
50.02096,-3.160518,1974.00
50.05482,-3.160806,1976.00
50.08842,-3.161404,1978.00
50.12393,-3.161437,1980.00
50.15537,-3.161539,1982.00
50.19086,-3.161917,1984.00
50.22364,-3.162705,1986.00
50.25748,-3.162854,1988.00
50.29067,-3.162520,1990.00
50.32498,-3.162153,1992.00
50.35566,-3.162120,1994.00
50.38991,-3.162065,1996.00
50.42488,-3.162114,1998.00
50.45529,-3.162405,2000.00
50.48606,-3.162413,2002.00
50.52168,-3.162392,2004.00
50.55520,-3.162281,2006.00
50.58823,-3.162536,2008.00
50.61971,-3.162407,2010.00
50.65330,-3.162725,2012.00
50.68637,-3.162646,2014.00
50.71958,-3.163509,2016.00
50.75231,-3.163842,2018.00
50.78645,-3.164165,2020.00
50.81891,-3.164319,2022.00
50.85283,-3.164456,2024.00
50.88799,-3.164579,2026.00
50.91990,-3.164290,2028.00
50.95232,-3.165030,2030.00
50.98590,-3.165695,2032.00
51.01678,-3.166384,2034.00
51.04942,-3.167186,2036.00
51.08271,-3.167446,2038.00
51.11452,-3.168314,2040.00
51.14905,-3.168999,2042.00
51.18344,-3.169568,2044.00
51.21412,-3.169475,2046.00
51.24676,-3.169070,2048.00
51.28227,-3.169070,2050.00
51.31684,-3.168853,2052.00
51.35138,-3.168970,2054.00
51.38353,-3.169839,2056.00
51.41670,-3.169633,2058.00
51.44952,-3.169410,2060.00
51.48266,-3.169656,2062.00
51.51575,-3.169660,2064.00
51.54989,-3.169847,2066.00
51.58273,-3.170237,2068.00
51.61734,-3.170427,2070.00
51.65105,-3.170972,2072.00
51.68079,-3.171054,2074.00
51.71524,-3.171605,2076.00
51.74875,-3.171648,2078.00
51.78071,-3.171013,2080.00
51.81431,-3.170700,2082.00
51.84923,-3.170729,2084.00
51.88070,-3.170944,2086.00
51.91210,-3.170625,2088.00
51.94507,-3.171316,2090.00
51.97864,-3.171740,2092.00
52.01208,-3.172453,2094.00
52.04287,-3.172451,2096.00
52.07555,-3.172636,2098.00
52.10982,-3.173777,2100.00
52.14438,-3.174178,2102.00
52.17735,-3.174299,2104.00
52.20932,-3.174343,2106.00
52.24060,-3.174432,2108.00
52.27412,-3.174832,2110.00
52.30892,-3.175107,2112.00
52.34121,-3.174728,2114.00
52.37441,-3.174955,2116.00
52.40870,-3.174896,2118.00
52.44322,-3.174828,2120.00
52.47631,-3.175143,2122.00
52.51064,-3.175395,2124.00
52.54107,-3.175112,2126.00
52.57292,-3.175452,2128.00
52.60983,-3.175621,2130.00
52.64174,-3.175855,2132.00
52.67502,-3.175682,2134.00
52.70661,-3.176330,2136.00
52.73895,-3.176343,2138.00
52.77202,-3.176606,2140.00
52.80598,-3.176923,2142.00
52.84045,-3.177613,2144.00
52.87233,-3.177832,2146.00
52.90483,-3.178404,2148.00
52.93694,-3.178877,2150.00
52.97114,-3.178326,2152.00
53.00382,-3.178316,2154.00
53.03698,-3.178846,2156.00
53.07294,-3.179050,2158.00
53.10522,-3.179006,2160.00
53.13837,-3.179676,2162.00
53.17458,-3.179933,2164.00
53.20618,-3.180202,2166.00
53.24012,-3.180505,2168.00
53.27250,-3.180733,2170.00
53.30784,-3.181222,2172.00
53.34052,-3.181719,2174.00
53.37535,-3.182150,2176.00
53.40705,-3.182256,2178.00
53.43921,-3.182622,2180.00
53.47523,-3.182703,2182.00
53.50695,-3.182898,2184.00
53.54154,-3.183341,2186.00
53.57621,-3.183709,2188.00
53.60820,-3.183193,2190.00
53.64281,-3.183491,2192.00
53.67592,-3.184164,2194.00
53.70980,-3.185364,2196.00
53.74135,-3.186130,2198.00
53.77441,-3.186878,2200.00
53.80808,-3.187034,2202.00
53.84187,-3.186558,2204.00
53.87254,-3.186872,2206.00
53.90611,-3.187397,2208.00
53.94013,-3.187635,2210.00
53.97475,-3.187189,2212.00
54.00704,-3.187988,2214.00
54.04117,-3.188710,2216.00
54.07275,-3.189064,2218.00
54.10599,-3.189128,2220.00
54.13710,-3.189272,2222.00
54.17213,-3.189115,2224.00
54.20665,-3.189220,2226.00
54.23783,-3.190305,2228.00
54.26893,-3.190561,2230.00
54.30593,-3.190456,2232.00
54.33934,-3.190358,2234.00
54.37276,-3.190956,2236.00
54.40658,-3.191786,2238.00
54.43931,-3.191912,2240.00
54.47039,-3.192301,2242.00
54.50295,-3.192698,2244.00
54.53751,-3.192956,2246.00
54.57171,-3.193679,2248.00
54.60186,-3.193418,2250.00
54.64024,-3.193489,2252.00
54.67402,-3.194148,2254.00
54.70753,-3.194681,2256.00
54.73991,-3.194728,2258.00
54.77220,-3.194795,2260.00
54.80689,-3.194609,2262.00
54.84095,-3.194726,2264.00
54.87623,-3.194893,2266.00
54.90904,-3.195273,2268.00
54.94008,-3.194707,2270.00
54.97468,-3.195474,2272.00
55.00734,-3.195941,2274.00
55.04279,-3.195561,2276.00
55.07545,-3.196150,2278.00
55.10932,-3.196735,2280.00
55.14198,-3.197021,2282.00
55.17826,-3.197390,2284.00
55.21070,-3.197495,2286.00
55.23930,-3.197105,2288.00
55.27520,-3.197527,2290.00
55.30855,-3.197346,2292.00
55.34355,-3.197171,2294.00
55.37748,-3.196738,2296.00
55.41044,-3.197023,2298.00
55.44411,-3.197830,2300.00
55.47659,-3.197799,2302.00
55.51147,-3.197821,2304.00
55.54471,-3.197694,2306.00
55.57675,-3.198533,2308.00
55.61113,-3.199042,2310.00
55.64725,-3.199654,2312.00
55.67973,-3.199502,2314.00
55.71190,-3.199818,2316.00
55.74353,-3.200019,2318.00
55.77538,-3.199959,2320.00
55.80938,-3.200302,2322.00
55.84332,-3.200797,2324.00
55.87372,-3.201252,2326.00
55.90747,-3.201856,2328.00
55.94216,-3.202653,2330.00
55.97516,-3.203061,2332.00
56.00864,-3.202587,2334.00
56.03996,-3.203292,2336.00
56.07361,-3.203653,2338.00
56.10598,-3.203821,2340.00
56.14068,-3.204047,2342.00
56.17312,-3.204789,2344.00
56.20604,-3.205156,2346.00
56.24025,-3.205227,2348.00
56.27193,-3.205831,2350.00
56.30644,-3.205722,2352.00
56.34175,-3.205824,2354.00
56.37295,-3.205683,2356.00
56.40628,-3.206300,2358.00
56.44115,-3.207330,2360.00
56.47502,-3.207848,2362.00
56.50791,-3.207886,2364.00
56.53890,-3.208626,2366.00
56.57177,-3.208938,2368.00
56.60556,-3.209128,2370.00
56.63807,-3.209395,2372.00
56.67255,-3.210275,2374.00
56.70536,-3.210614,2376.00
56.73741,-3.210619,2378.00
56.77198,-3.211197,2380.00
56.80289,-3.212228,2382.00
56.83750,-3.212769,2384.00
56.87199,-3.212767,2386.00
56.90312,-3.213220,2388.00
56.93655,-3.213828,2390.00
56.97051,-3.214001,2392.00
57.00263,-3.214430,2394.00
57.03616,-3.215229,2396.00
57.06833,-3.215679,2398.00
57.10217,-3.215435,2400.00
57.13536,-3.215173,2402.00
57.16827,-3.215647,2404.00
57.20220,-3.216124,2406.00
57.23325,-3.217238,2408.00
57.26355,-3.217490,2410.00
57.29752,-3.218091,2412.00
57.32937,-3.218797,2414.00
57.36022,-3.219429,2416.00
57.39334,-3.219928,2418.00
57.42644,-3.220661,2420.00
57.45930,-3.220970,2422.00
57.49454,-3.221752,2424.00
57.52926,-3.221808,2426.00
57.56248,-3.222123,2428.00
57.59443,-3.222421,2430.00
57.62758,-3.222697,2432.00
57.66099,-3.223437,2434.00
57.69340,-3.224059,2436.00
57.72537,-3.224618,2438.00
57.76143,-3.225275,2440.00
57.79598,-3.225895,2442.00
57.82794,-3.225937,2444.00
57.86010,-3.226410,2446.00
57.89369,-3.226961,2448.00
57.92674,-3.226956,2450.00
57.96017,-3.227258,2452.00
57.99295,-3.227989,2454.00
58.02324,-3.228663,2456.00
58.05795,-3.229058,2458.00
58.09088,-3.229447,2460.00
58.12309,-3.229482,2462.00
58.15623,-3.230485,2464.00
58.18805,-3.231104,2466.00
58.22456,-3.231220,2468.00
58.25757,-3.231375,2470.00
58.29259,-3.231358,2472.00
58.32532,-3.231416,2474.00
58.35913,-3.231422,2476.00
58.39142,-3.231300,2478.00
58.42435,-3.231474,2480.00
58.45770,-3.231897,2482.00
58.49156,-3.232489,2484.00
58.52557,-3.232786,2486.00
58.55851,-3.232111,2488.00
58.58942,-3.231647,2490.00
58.62327,-3.231927,2492.00
58.65658,-3.232555,2494.00
58.68844,-3.232929,2496.00
58.72243,-3.233506,2498.00
58.75521,-3.233806,2500.00
58.79247,-3.235279,2502.00
58.82241,-3.235949,2504.00
58.85744,-3.237208,2506.00
58.88990,-3.238478,2508.00
58.92221,-3.238971,2510.00
58.95431,-3.239593,2512.00
58.99026,-3.239966,2514.00
59.02452,-3.240128,2516.00
59.05899,-3.240938,2518.00
59.08954,-3.241882,2520.00
59.12263,-3.242392,2522.00
59.16010,-3.242552,2524.00
59.19215,-3.242996,2526.00
59.22225,-3.243258,2528.00
59.25326,-3.243356,2530.00
59.29033,-3.243912,2532.00
59.32431,-3.244529,2534.00
59.36012,-3.244774,2536.00
59.39178,-3.245255,2538.00
59.42547,-3.245298,2540.00
59.45777,-3.244579,2542.00
59.48888,-3.244817,2544.00
59.52268,-3.245458,2546.00
59.55848,-3.245247,2548.00
59.59126,-3.246041,2550.00
59.62328,-3.246881,2552.00
59.65721,-3.247386,2554.00
59.69004,-3.247754,2556.00
59.72384,-3.248478,2558.00
59.75682,-3.249077,2560.00
59.78967,-3.249132,2562.00
59.82414,-3.249892,2564.00
59.85552,-3.250016,2566.00
59.88932,-3.249338,2568.00
59.92107,-3.249494,2570.00
59.95443,-3.250069,2572.00
59.98841,-3.250790,2574.00
60.02063,-3.251193,2576.00
60.05507,-3.251336,2578.00
60.08738,-3.251782,2580.00
60.12191,-3.252120,2582.00
60.15528,-3.251846,2584.00
60.18631,-3.252266,2586.00
60.21945,-3.252448,2588.00
60.25503,-3.253139,2590.00
60.28785,-3.254305,2592.00
60.31832,-3.255264,2594.00
60.35264,-3.255910,2596.00
60.38632,-3.256243,2598.00
60.41819,-3.256852,2600.00
60.45335,-3.257748,2602.00
60.48701,-3.258173,2604.00
60.51776,-3.258518,2606.00
60.55105,-3.258309,2608.00
60.58609,-3.257405,2610.00
60.61970,-3.257383,2612.00
60.65330,-3.258291,2614.00
60.68510,-3.258458,2616.00
60.71952,-3.258963,2618.00
60.75185,-3.259157,2620.00
60.78406,-3.259374,2622.00
60.81671,-3.259205,2624.00
60.85070,-3.259613,2626.00
60.88450,-3.260048,2628.00
60.91792,-3.260479,2630.00
60.95005,-3.261160,2632.00
60.98219,-3.261565,2634.00
61.01603,-3.261976,2636.00
61.04883,-3.262639,2638.00
61.08319,-3.263095,2640.00
61.11617,-3.264012,2642.00
61.14883,-3.264277,2644.00
61.18464,-3.265048,2646.00
61.21347,-3.265877,2648.00
61.24443,-3.266242,2650.00
61.27718,-3.266463,2652.00
61.31079,-3.266744,2654.00
61.34404,-3.267772,2656.00
61.37579,-3.268574,2658.00
61.41228,-3.269494,2660.00
61.44557,-3.270130,2662.00
61.47872,-3.271058,2664.00
61.51074,-3.271856,2666.00
61.54646,-3.272270,2668.00
61.57772,-3.272729,2670.00
61.61439,-3.273000,2672.00
61.64681,-3.273225,2674.00
61.68084,-3.274170,2676.00
61.71407,-3.274892,2678.00
61.74616,-3.275404,2680.00
61.77842,-3.276448,2682.00
61.81166,-3.277732,2684.00
61.84557,-3.278529,2686.00
61.87731,-3.279644,2688.00
61.91029,-3.280359,2690.00
61.94258,-3.281278,2692.00
61.97705,-3.282148,2694.00
62.01018,-3.283183,2696.00
62.04128,-3.283196,2698.00
62.07434,-3.283321,2700.00
62.10966,-3.283767,2702.00
62.14346,-3.284902,2704.00
62.17577,-3.285879,2706.00
62.20951,-3.286201,2708.00
62.24343,-3.286198,2710.00
62.27681,-3.286431,2712.00
62.30979,-3.286943,2714.00
62.34545,-3.287463,2716.00
62.37940,-3.288415,2718.00
62.41213,-3.288840,2720.00
62.44470,-3.289144,2722.00
62.47735,-3.289548,2724.00
62.51106,-3.290473,2726.00
62.54423,-3.291134,2728.00
62.57729,-3.291740,2730.00
62.61123,-3.292791,2732.00
62.64417,-3.293396,2734.00
62.67804,-3.294225,2736.00
62.70844,-3.295355,2738.00
62.74121,-3.295981,2740.00
62.77465,-3.296378,2742.00
62.80533,-3.297030,2744.00
62.84062,-3.298511,2746.00
62.87513,-3.299491,2748.00
62.90687,-3.300919,2750.00
62.93835,-3.301547,2752.00
62.97440,-3.302870,2754.00
63.00713,-3.303727,2756.00
63.03851,-3.304771,2758.00
63.07248,-3.305302,2760.00
63.10489,-3.305879,2762.00
63.13836,-3.307047,2764.00
63.17150,-3.307667,2766.00
63.20672,-3.307642,2768.00
63.24112,-3.308022,2770.00
63.27410,-3.308743,2772.00
63.30887,-3.309664,2774.00
63.34295,-3.310674,2776.00
63.37387,-3.311201,2778.00
63.40607,-3.311429,2780.00
63.43951,-3.311923,2782.00
63.47232,-3.312343,2784.00
63.50675,-3.313537,2786.00
63.54029,-3.314285,2788.00
63.57362,-3.313996,2790.00
63.60703,-3.314969,2792.00
63.64025,-3.315873,2794.00
63.67231,-3.316779,2796.00
63.70465,-3.317950,2798.00
63.73756,-3.318993,2800.00
63.77021,-3.319421,2802.00
63.80405,-3.319741,2804.00
63.83700,-3.319448,2806.00
63.87095,-3.320311,2808.00
63.90295,-3.321517,2810.00
63.93672,-3.322046,2812.00
63.97000,-3.322387,2814.00
64.00168,-3.323274,2816.00
64.03552,-3.323841,2818.00
64.07209,-3.324442,2820.00
64.10369,-3.324841,2822.00
64.13549,-3.325683,2824.00
64.16754,-3.327238,2826.00
64.20203,-3.327676,2828.00
64.23565,-3.328413,2830.00
64.27031,-3.329173,2832.00
64.30435,-3.329611,2834.00
64.33771,-3.330490,2836.00
64.37000,-3.331314,2838.00
64.40479,-3.332422,2840.00
64.43806,-3.333050,2842.00
64.47134,-3.333536,2844.00
64.50267,-3.334913,2846.00
64.53584,-3.335939,2848.00
64.56841,-3.336099,2850.00
64.60119,-3.336543,2852.00
64.63509,-3.337427,2854.00
64.67093,-3.338415,2856.00
64.70243,-3.338911,2858.00
64.73395,-3.339529,2860.00
64.76953,-3.340579,2862.00
64.80202,-3.341406,2864.00
64.83422,-3.342229,2866.00
64.86833,-3.342570,2868.00
64.90272,-3.343760,2870.00
64.93549,-3.343819,2872.00
64.96898,-3.344452,2874.00
65.00193,-3.345594,2876.00
65.03619,-3.347219,2878.00
65.06952,-3.348230,2880.00
65.10188,-3.348907,2882.00
65.13489,-3.349709,2884.00
65.16734,-3.350163,2886.00
65.20149,-3.350643,2888.00
65.23175,-3.350938,2890.00
65.26302,-3.351758,2892.00
65.29949,-3.352945,2894.00
65.33580,-3.353960,2896.00
65.36562,-3.354163,2898.00
65.39829,-3.354846,2900.00
65.43180,-3.356207,2902.00
65.46565,-3.357444,2904.00
65.49656,-3.359138,2906.00
65.53014,-3.360284,2908.00
65.56504,-3.361147,2910.00
65.59920,-3.361190,2912.00
65.63193,-3.361231,2914.00
65.66622,-3.361659,2916.00
65.69721,-3.361994,2918.00
65.72959,-3.362101,2920.00
65.76391,-3.362466,2922.00
65.79630,-3.363564,2924.00
65.82868,-3.364769,2926.00
65.86189,-3.366138,2928.00
65.89575,-3.367260,2930.00
65.92905,-3.368529,2932.00
65.96254,-3.369522,2934.00
65.99492,-3.370731,2936.00
66.02809,-3.372600,2938.00
66.05973,-3.372923,2940.00
66.09170,-3.373248,2942.00
66.12734,-3.374482,2944.00
66.16078,-3.375454,2946.00
66.19293,-3.376059,2948.00
66.22652,-3.376652,2950.00
66.25919,-3.377333,2952.00
66.29389,-3.377915,2954.00
66.32591,-3.377890,2956.00
66.35857,-3.377906,2958.00
66.39144,-3.378990,2960.00
66.42413,-3.380028,2962.00
66.45842,-3.380998,2964.00
66.49207,-3.382193,2966.00
66.52548,-3.383711,2968.00
66.55903,-3.385155,2970.00
66.59276,-3.385783,2972.00
66.62497,-3.386041,2974.00
66.65816,-3.386628,2976.00
66.68996,-3.386775,2978.00
66.72376,-3.387773,2980.00
66.75776,-3.389002,2982.00
66.78978,-3.390248,2984.00
66.82325,-3.391382,2986.00
66.85602,-3.392400,2988.00
66.88855,-3.392677,2990.00
66.92323,-3.393554,2992.00
66.95625,-3.394524,2994.00
66.98912,-3.395137,2996.00
67.02177,-3.395785,2998.00
67.05387,-3.396765,3000.00
67.08735,-3.398003,3002.00
67.12276,-3.399008,3004.00
67.15669,-3.400473,3006.00
67.19065,-3.401567,3008.00
67.22529,-3.402106,3010.00
67.25615,-3.402552,3012.00
67.28826,-3.403962,3014.00
67.32404,-3.405403,3016.00
67.35757,-3.405785,3018.00
67.38930,-3.406674,3020.00
67.42416,-3.407328,3022.00
67.45838,-3.408546,3024.00
67.49013,-3.409491,3026.00
67.52431,-3.410733,3028.00
67.55678,-3.411794,3030.00
67.58940,-3.413254,3032.00
67.62476,-3.413591,3034.00
67.65667,-3.414225,3036.00
67.69089,-3.415325,3038.00
67.72585,-3.416432,3040.00
67.75883,-3.417612,3042.00
67.79151,-3.418370,3044.00
67.82521,-3.419122,3046.00
67.85961,-3.419934,3048.00
67.89212,-3.420924,3050.00
67.92346,-3.421492,3052.00
67.95537,-3.421749,3054.00
67.98822,-3.423015,3056.00
68.01971,-3.424379,3058.00
68.05158,-3.425356,3060.00
68.08643,-3.425997,3062.00
68.11632,-3.426830,3064.00
68.14681,-3.427917,3066.00
68.18039,-3.428994,3068.00
68.21298,-3.429116,3070.00
68.24700,-3.429497,3072.00
68.27911,-3.430380,3074.00
68.31358,-3.431196,3076.00
68.34498,-3.432341,3078.00
68.37715,-3.432842,3080.00
68.41183,-3.433004,3082.00
68.44499,-3.433798,3084.00
68.47544,-3.434866,3086.00
68.50816,-3.435848,3088.00
68.54205,-3.437084,3090.00
68.57481,-3.438210,3092.00
68.60814,-3.439469,3094.00
68.63929,-3.439920,3096.00
68.67059,-3.441048,3098.00
68.70447,-3.442264,3100.00
68.73967,-3.443505,3102.00
68.77010,-3.444716,3104.00
68.80245,-3.445531,3106.00
68.83477,-3.445414,3108.00
68.86867,-3.446022,3110.00
68.90381,-3.446678,3112.00
68.93557,-3.448148,3114.00
68.96941,-3.449430,3116.00
69.00168,-3.451192,3118.00
69.03518,-3.452684,3120.00
69.06816,-3.454039,3122.00
69.09935,-3.455170,3124.00
69.12903,-3.455839,3126.00
69.15968,-3.457085,3128.00
69.19559,-3.458182,3130.00
69.22850,-3.459353,3132.00
69.26141,-3.459862,3134.00
69.29573,-3.460874,3136.00
69.32860,-3.462307,3138.00
69.36151,-3.463058,3140.00
69.39398,-3.464284,3142.00
69.42789,-3.465175,3144.00
69.46114,-3.465689,3146.00
69.49505,-3.466502,3148.00
69.52865,-3.467418,3150.00
69.55917,-3.468713,3152.00
69.59288,-3.468984,3154.00
69.62686,-3.469092,3156.00
69.66043,-3.470224,3158.00
69.69284,-3.471610,3160.00
69.72754,-3.472840,3162.00
69.75754,-3.473819,3164.00
69.78813,-3.474935,3166.00
69.82273,-3.475850,3168.00
69.85609,-3.477172,3170.00
69.89202,-3.478395,3172.00
69.92416,-3.479829,3174.00
69.95843,-3.481055,3176.00
69.99070,-3.482041,3178.00
70.02425,-3.483039,3180.00
70.05688,-3.483818,3182.00
70.09254,-3.484468,3184.00
70.12609,-3.485235,3186.00
70.15996,-3.486538,3188.00
70.19212,-3.487978,3190.00
70.22497,-3.489392,3192.00
70.25835,-3.489998,3194.00
70.29063,-3.491591,3196.00
70.32687,-3.493149,3198.00
70.35807,-3.494039,3200.00
70.39086,-3.495464,3202.00
70.42547,-3.495903,3204.00
70.45790,-3.495891,3206.00
70.49176,-3.497129,3208.00
70.52310,-3.498400,3210.00
70.55636,-3.498351,3212.00
70.59125,-3.500159,3214.00
70.62195,-3.500728,3216.00
70.65425,-3.501532,3218.00
70.69015,-3.502233,3220.00
70.72138,-3.503365,3222.00
70.75661,-3.503321,3224.00
70.78952,-3.502362,3226.00
70.82257,-3.503346,3228.00
70.85399,-3.504392,3230.00
70.88658,-3.506162,3232.00
70.92281,-3.507964,3234.00
70.95367,-3.509233,3236.00
70.98692,-3.510505,3238.00
71.02236,-3.511674,3240.00
71.05533,-3.513367,3242.00
71.08918,-3.514906,3244.00
71.12068,-3.515521,3246.00
71.15441,-3.516642,3248.00
71.18833,-3.518122,3250.00
71.22106,-3.519229,3252.00
71.25464,-3.520293,3254.00
71.28947,-3.521679,3256.00
71.32450,-3.523169,3258.00
71.35590,-3.524311,3260.00
71.39050,-3.525485,3262.00
71.42358,-3.526286,3264.00
71.45756,-3.527475,3266.00
71.49323,-3.529320,3268.00
71.52532,-3.530066,3270.00
71.55653,-3.531499,3272.00
71.58764,-3.532496,3274.00
71.62071,-3.533229,3276.00
71.65559,-3.533961,3278.00
71.68839,-3.534903,3280.00
71.72201,-3.535878,3282.00
71.75655,-3.536966,3284.00
71.79113,-3.537983,3286.00
71.82401,-3.539204,3288.00
71.85895,-3.540488,3290.00
71.88924,-3.541449,3292.00
71.92037,-3.542282,3294.00
71.95424,-3.542346,3296.00
71.98756,-3.543249,3298.00
72.02021,-3.544700,3300.00
72.05469,-3.545451,3302.00
72.08503,-3.546299,3304.00
72.11842,-3.546499,3306.00
72.15282,-3.546876,3308.00
72.18747,-3.547189,3310.00
72.21899,-3.547968,3312.00
72.25261,-3.549001,3314.00
72.28663,-3.549340,3316.00
72.32023,-3.550212,3318.00
72.35328,-3.550979,3320.00
72.38303,-3.551449,3322.00
72.41653,-3.551938,3324.00
72.45073,-3.551898,3326.00
72.48605,-3.552689,3328.00
72.51892,-3.553202,3330.00
72.55207,-3.552805,3332.00
72.58472,-3.552930,3334.00
72.61669,-3.553280,3336.00
72.65039,-3.553469,3338.00
72.68440,-3.553514,3340.00
72.71772,-3.553250,3342.00
72.75108,-3.552518,3344.00
72.78338,-3.551426,3346.00
72.81416,-3.550610,3348.00
72.84913,-3.549414,3350.00
72.88389,-3.548079,3352.00
72.91690,-3.545853,3354.00
72.95061,-3.543399,3356.00
72.98244,-3.539781,3358.00
73.01360,-3.535806,3360.00
73.04447,-3.530756,3362.00
73.07764,-3.523464,3364.00
73.11264,-3.513564,3366.00
73.14540,-3.500201,3368.00
73.17707,-3.481555,3370.00
73.21141,-3.455402,3372.00
73.24559,-3.418488,3374.00
73.27873,-3.365639,3376.00
73.31185,-3.290752,3378.00
73.34397,-3.184588,3380.00
73.38010,-3.033543,3382.00
73.41128,-2.810058,3384.00
73.44485,-2.473933,3386.00
73.47812,-1.958101,3388.00
73.51059,-1.201202,3390.00
73.54352,-0.192040,3392.00
73.57563,0.856033,3394.00
73.60829,1.364759,3396.00
73.63933,1.130498,3398.00
73.67391,0.450024,3400.00
73.70595,-0.330508,3402.00
73.74053,-1.012787,3404.00
73.77418,-1.557229,3406.00
73.80706,-1.983629,3408.00
73.83920,-2.318140,3410.00
73.87078,-2.582585,3412.00
73.90512,-2.792009,3414.00
73.93878,-2.960392,3416.00
73.97320,-3.095508,3418.00
74.00485,-3.202554,3420.00
74.03761,-3.288331,3422.00
74.07106,-3.356446,3424.00
74.10681,-3.410644,3426.00
74.14029,-3.453778,3428.00
74.17262,-3.489337,3430.00
74.20530,-3.518684,3432.00
74.24141,-3.541337,3434.00
74.27506,-3.559411,3436.00
74.30591,-3.573938,3438.00
74.33998,-3.585509,3440.00
74.37434,-3.594135,3442.00
74.40859,-3.601046,3444.00
74.43889,-3.606980,3446.00
74.47359,-3.611046,3448.00
74.50659,-3.613325,3450.00
74.53861,-3.615473,3452.00
74.57009,-3.616277,3454.00
74.60549,-3.616282,3456.00
74.63844,-3.617202,3458.00
74.67104,-3.616632,3460.00
74.70654,-3.615596,3462.00
74.73837,-3.614846,3464.00
74.77249,-3.612697,3466.00
74.80507,-3.609422,3468.00
74.83722,-3.606181,3470.00
74.87107,-3.601972,3472.00
74.90647,-3.596822,3474.00
74.93818,-3.591415,3476.00
74.97280,-3.585308,3478.00
75.00592,-3.577607,3480.00
75.03943,-3.569274,3482.00
75.07103,-3.558870,3484.00
75.10722,-3.546343,3486.00
75.13963,-3.531626,3488.00
75.17299,-3.514745,3490.00
75.20840,-3.493687,3492.00
75.24118,-3.468821,3494.00
75.27152,-3.439623,3496.00
75.30825,-3.404807,3498.00
75.34142,-3.362917,3500.00
75.37433,-3.309749,3502.00
75.40761,-3.242396,3504.00
75.43871,-3.156413,3506.00
75.47309,-3.044534,3508.00
75.50667,-2.893230,3510.00
75.53908,-2.685695,3512.00
75.57215,-2.392650,3514.00
75.60431,-1.962868,3516.00
75.63446,-1.309344,3518.00
75.67071,-0.294403,3520.00
75.70184,1.207585,3522.00
75.73552,3.254293,3524.00
75.76744,5.931087,3526.00
75.79810,8.877832,3528.00
75.83366,10.662516,3530.00
75.86842,9.920306,3532.00
75.89994,7.607795,3534.00
75.93465,5.179508,3536.00
75.96772,3.262112,3538.00
75.99931,1.802264,3540.00
76.03168,0.672907,3542.00
76.06809,-0.214258,3544.00
76.10269,-0.922497,3546.00
76.13505,-1.496606,3548.00
76.16672,-1.962332,3550.00
76.20089,-2.337978,3552.00
76.23520,-2.639874,3554.00
76.26886,-2.883064,3556.00
76.30209,-3.078470,3558.00
76.33630,-3.235609,3560.00
76.36711,-3.360728,3562.00
76.40011,-3.461466,3564.00
76.43229,-3.542485,3566.00
76.46691,-3.607107,3568.00
76.49974,-3.658856,3570.00
76.53340,-3.701036,3572.00
76.56499,-3.735312,3574.00
76.59845,-3.762981,3576.00
76.63190,-3.785016,3578.00
76.66672,-3.804230,3580.00
76.69698,-3.821117,3582.00
76.73073,-3.833342,3584.00
76.76221,-3.843192,3586.00
76.79686,-3.851738,3588.00
76.82959,-3.858940,3590.00
76.86084,-3.864978,3592.00
76.89639,-3.870942,3594.00
76.93098,-3.875888,3596.00
76.96321,-3.880240,3598.00
76.99956,-3.883685,3600.00
77.03039,-3.886377,3602.00
77.06286,-3.889827,3604.00
77.09835,-3.893130,3606.00
77.12993,-3.894786,3608.00
77.16554,-3.897516,3610.00
77.19845,-3.900870,3612.00
77.23170,-3.904264,3614.00
77.26571,-3.906844,3616.00
77.29775,-3.909365,3618.00
77.33017,-3.912263,3620.00
77.36628,-3.914772,3622.00
77.39705,-3.917311,3624.00
77.42998,-3.920522,3626.00
77.46541,-3.923748,3628.00
77.49734,-3.926376,3630.00
77.52805,-3.928711,3632.00
77.56642,-3.931833,3634.00
77.59588,-3.935659,3636.00
77.63030,-3.938602,3638.00
77.66422,-3.941313,3640.00
77.69695,-3.944487,3642.00
77.73032,-3.947184,3644.00
77.76378,-3.949045,3646.00
77.79625,-3.951401,3648.00
77.83131,-3.953828,3650.00
77.86348,-3.955633,3652.00
77.89542,-3.958534,3654.00
77.92886,-3.961436,3656.00
77.96345,-3.964553,3658.00
77.99474,-3.967274,3660.00
78.02833,-3.969775,3662.00
78.06034,-3.970992,3664.00
78.09685,-3.972031,3666.00
78.12840,-3.972720,3668.00
78.16470,-3.972493,3670.00
78.19732,-3.973720,3672.00
78.22983,-3.976506,3674.00
78.26460,-3.977305,3676.00
78.29637,-3.978311,3678.00
78.33013,-3.981040,3680.00
78.36492,-3.985723,3682.00
78.39518,-3.991249,3684.00
78.42827,-3.996040,3686.00
78.46238,-4.000427,3688.00
78.49317,-4.004482,3690.00
78.52789,-4.007356,3692.00
78.56146,-4.010682,3694.00
78.59480,-4.014827,3696.00
78.62868,-4.018509,3698.00
78.66309,-4.021659,3700.00
78.69470,-4.024634,3702.00
78.72844,-4.027564,3704.00
78.76264,-4.030579,3706.00
78.79309,-4.033806,3708.00
78.82524,-4.036463,3710.00
78.85873,-4.039234,3712.00
78.89313,-4.041675,3714.00
78.92632,-4.044855,3716.00
78.96058,-4.048041,3718.00
78.99509,-4.051655,3720.00
79.02550,-4.054766,3722.00
79.06167,-4.058517,3724.00
79.09302,-4.062263,3726.00
79.12759,-4.065929,3728.00
79.16325,-4.069101,3730.00
79.19243,-4.072077,3732.00
79.22712,-4.074743,3734.00
79.26010,-4.078215,3736.00
79.29354,-4.081495,3738.00
79.32565,-4.084969,3740.00
79.35802,-4.088319,3742.00
79.39247,-4.091714,3744.00
79.42630,-4.094790,3746.00
79.45802,-4.097668,3748.00
79.49023,-4.101387,3750.00
79.52435,-4.104466,3752.00
79.55840,-4.106494,3754.00
79.58965,-4.110161,3756.00
79.62112,-4.114523,3758.00
79.65799,-4.118750,3760.00
79.69190,-4.123034,3762.00
79.72497,-4.126842,3764.00
79.75618,-4.128925,3766.00
79.78802,-4.132412,3768.00
79.82369,-4.135980,3770.00
79.85887,-4.140176,3772.00
79.89121,-4.143968,3774.00
79.92341,-4.147308,3776.00
79.95756,-4.150429,3778.00

